 Time,Acc_x,Acc_y,Acc_z,HRM_b,HRM_c,HRM_r,HRM_f,PPG_r,PPG_o,BTHRM
 1654530054660.90966796875,,,,,,2398,-21090,1199,0,
 1654530054698.080078125,-0.0732421875,0.30505371093,-0.96069335937,,,,,,,,
 1654530054702.474609375,,,,,,2414,-25647,1207,0,
 1654530054738.66845703125,,,,,,2406,-28833,1203,0,
 1654530054777.27319335937,-0.07373046875,0.30590820312,-0.96606445312,,,,,,,,
 1654530054782.82739257812,,,,,,2398,-30329,1199,0,
 1654530054819.41796875,,,,,,2366,-30735,1183,0,
 1654530054857.1376953125,-0.06774902343,0.30310058593,-0.9716796875,,,,,,,,
 1654530054862.7529296875,,,,,,2366,-30043,1183,0,
 1654530054899.49609375,,,,,,2366,-28701,1183,0,
 1654530054931.99731445312,-0.0732421875,0.30187988281,-0.97534179687,,,,,,,,
 1654530054942.98364257812,,,,,,2350,-26560,1175,0,
 1654530055012.10595703125,-0.07678222656,0.30126953125,-0.97705078125,,,,,,,,
 1654530055022.787109375,,,,,,2294,-24446,1147,0,
 1654530055060.78149414062,,,,,,2270,-22117,1135,0,
 1654530055092.15356445312,-0.04516601562,0.32177734375,-0.91625976562,,,,,,,,
 1654530055102.7431640625,,,,,,2254,-19858,1127,0,
 1654530055141.13427734375,,,,,,2334,-17497,1167,0,
 1654530055171.95703125,-0.03771972656,0.29602050781,-0.87866210937,,,,,,,,
 1654530055221.67016601562,,,,,,2622,-13351,1311,0,
 1654530055252.06567382812,-0.03527832031,0.26000976562,-0.91943359375,,,,,,,,
 1654530055262.77734375,,,,,,2678,-12181,1339,0,
 1654530055302.66381835937,,,,,,2702,-10479,1351,0,
 1654530055332.11328125,-0.00610351562,0.33801269531,-0.8466796875,,,,,,,,
 1654530055342.58081054687,,,,,,2686,-8422,1343,0,
 1654530055382.95556640625,,,,,,2670,-6247,1335,0,
 1654530055411.947265625,-0.04455566406,0.3681640625,-0.79821777343,,,,,,,,
 1654530055422.87255859375,,,,,,2670,-4264,1335,0,
 1654530055491.35400390625,,,,,,2650,-2737,1325,0,
 1654530055507.00952148437,,,,,,2634,-1791,1317,0,
 1654530055544.08837890625,,,,,,2622,-1437,1311,0,
 1654530055571.9814453125,-0.03881835937,0.38586425781,-0.92419433593,,,,,,,,
 1654530055584.46313476562,,,,,,2598,-1648,1299,0,
 1654530055624.349609375,,,,,,2542,-2285,1271,0,
 1654530055651.75439453125,-0.02124023437,0.42797851562,-0.84484863281,,,,,,,,
 1654530055664.54125976562,,,,,,2542,-3111,1271,0,
 1654530055705.06860351562,,,,,,2518,-3888,1259,0,
 1654530055733.05322265625,-0.05993652343,0.42370605468,-0.93798828125,,,,,,,,
 1654530055745.3212890625,,,,,,2486,-4336,1243,0,
 1654530055785.45190429687,,,,,,2590,-4175,1295,0,
 1654530055811.94116210937,-0.05297851562,0.35705566406,-0.9658203125,,,,,,,,
 1654530055825.58251953125,,,,,,2750,-3256,1375,0,
 1654530055865.98779296875,,,,,,2862,-1610,1431,0,
 1654530055891.71411132812,-0.04553222656,0.30712890625,-0.91735839843,,,,,,,,
 1654530055906.14892578125,,,,,,2910,692,1455,0,
 1654530055946.52368164062,,,,,,2910,3415,1455,0,
 1654530055972.03637695312,-0.09838867187,0.33508300781,-0.88427734375,,,,,,,,
 1654530055987.08154296875,,,,,,2894,6260,1447,0,
 1654530056027.12060546875,,,,,,2878,8831,1439,0,
 1654530056052.05346679687,-0.14697265625,0.31469726562,-0.88354492187,,,,,,,,
 1654530056067.55639648437,,,,,,2870,10787,1435,0,
 1654530056107.65649414062,,,,,,2838,11835,1419,0,
 1654530056132.10107421875,-0.10815429687,0.23522949218,-0.91442871093,,,,,,,,
 1654530056148.09228515625,,,,,,2814,11836,1407,0,
 1654530056188.22290039062,,,,,,2750,10690,1375,0,
 1654530056211.99609375,-0.07751464843,0.20556640625,-0.91735839843,,,,,,,,
 1654530056228.78076171875,,,,,,2718,8499,1359,0,
 1654530056268.81982421875,,,,,,2646,5502,1323,0,
 1654530056292.98974609375,-0.09143066406,0.25952148437,-0.94482421875,,,,,,,,
 1654530056309.34716796875,,,,,,2574,2005,1287,0,
 1654530056349.35571289062,,,,,,2518,-1544,1259,0,
 1654530056371.81665039062,-0.08435058593,0.28356933593,-0.96166992187,,,,,,,,
 1654530056390.24926757812,,,,,,2454,-4729,1227,0,
 1654530056429.92211914062,,,,,,2398,-7215,1199,0,
 1654530056495.22973632812,-0.07885742187,0.2958984375,-0.96850585937,,,,,,,,
 1654530056499.28857421875,,,,,,2382,-8728,1191,0,
 1654530056531.78979492187,-0.07434082031,0.30261230468,-0.98217773437,,,,,,,,
 1654530056551.01586914062,,,,,,2622,-8344,1311,0,
 1654530056591.60424804687,,,,,,2654,-6638,1327,0,
 1654530056611.7763671875,-0.07214355468,0.3037109375,-0.98645019531,,,,,,,,
 1654530056631.58227539062,,,,,,2622,-4301,1311,0,
 1654530056671.62133789062,,,,,,2606,-1717,1303,0,
 1654530056692.03759765625,-0.06799316406,0.30419921875,-0.98120117187,,,,,,,,
 1654530056712.27075195312,,,,,,2542,683,1271,0,
 1654530056752.1572265625,,,,,,2510,2525,1255,0,
 1654530056771.9326171875,-0.06506347656,0.30139160156,-0.98388671875,,,,,,,,
 1654530056792.71508789062,,,,,,2458,3514,1229,0,
 1654530056833.30346679687,,,,,,2422,3506,1211,0,
 1654530056837.8505859375,,,,48,0,,,,
 1654530056851.888671875,-0.06469726562,0.30725097656,-0.98107910156,,,,,,,,
 1654530056873.18994140625,,,,,,2382,2448,1191,0,
 1654530056913.47314453125,,,,,,2318,455,1159,0,
 1654530056931.99731445312,-0.06970214843,0.31103515625,-0.97241210937,,,,,,,,
 1654530056953.3291015625,,,,,,2286,-2203,1143,0,
 1654530056993.8564453125,,,,,,2222,-5189,1111,0,
 1654530057011.89233398437,-0.07421875,0.30871582031,-0.96105957031,,,,,,,,
 1654530057034.56689453125,,,,,,2158,-8094,1079,0,
 1654530057074.4228515625,,,,,,2126,-10560,1063,0,
 1654530057091.7568359375,-0.0751953125,0.30651855468,-0.95471191406,,,,,,,,
 1654530057114.9501953125,,,,,,2118,-12300,1059,0,
 1654530057154.95874023437,,,,,,2238,-13085,1119,0,
 1654530057171.95703125,-0.07775878906,0.30346679687,-0.95910644531,,,,,,,,
 1654530057195.73022460937,,,,,,2362,-12832,1181,0,
 1654530057235.52514648437,,,,,,2422,-11583,1211,0,
 1654530057251.60791015625,-0.07373046875,0.30725097656,-0.96520996093,,,,,,,,
 1654530057275.80834960937,,,,,,2454,-9542,1227,0,
 1654530057316.06103515625,,,,,,2430,-7013,1215,0,
 1654530057331.71655273437,-0.07080078125,0.31103515625,-0.97131347656,,,,,,,,
 1654530057356.83251953125,,,,,,2390,-4357,1195,0,
 1654530057396.62744140625,,,,,,2366,-1909,1183,0,
 1654530057411.91674804687,-0.07470703125,0.3076171875,-0.97717285156,,,,,,,,
 1654530057490.89624023437,,,,,,2366,16,1183,0,
 1654530057501.15014648437,,,,,,2350,1213,1175,0,
 1654530057517.66015625,,,,,,2342,1607,1171,0,
 1654530057558.5537109375,,,,,,2326,1209,1163,0,
 1654530057563.1923828125,,,,65,0,,,,
 1654530057571.43212890625,-0.07165527343,0.3134765625,-0.97045898437,,,,,,,,
 1654530057598.28759765625,,,,,,2302,145,1151,0,
 1654530057638.17407226562,,,,,,2282,-1308,1141,0,
 1654530057651.84594726562,-0.06774902343,0.31506347656,-0.96435546875,,,,,,,,
 1654530057678.64038085937,,,,,,2286,-2839,1143,0,
 1654530057718.83203125,,,,,,2302,-4162,1151,0,
 1654530057731.52734375,-0.07019042968,0.31884765625,-0.96459960937,,,,,,,,
 1654530057759.14575195312,,,,,,2446,-4936,1223,0,
 1654530057799.36791992187,,,,,,2622,-4979,1311,0,
 1654530057812.42944335937,-0.07336425781,0.314453125,-0.9677734375,,,,,,,,
 1654530057839.83422851562,,,,,,2718,-4218,1359,0,
 1654530057879.93432617187,,,,,,2798,-2678,1399,0,
 1654530057891.65307617187,-0.07482910156,0.31237792968,-0.96728515625,,,,,,,,
 1654530057920.46166992187,,,,,,2814,-520,1407,0,
 1654530057960.47021484375,,,,,,2814,1997,1407,0,
 1654530057971.48706054687,-0.0712890625,0.31140136718,-0.97424316406,,,,,,,,
 1654530058001.48583984375,,,,,,2814,4559,1407,0,
 1654530058041.00610351562,,,,,,2814,6810,1407,0,
 1654530058051.3515625,-0.06860351562,0.30981445312,-0.97448730468,,,,,,,,
 1654530058081.35034179687,,,,,,2814,8427,1407,0,
 1654530058131.52124023437,-0.07153320312,0.30920410156,-0.97143554687,,,,,,,,
 1654530058162.00830078125,,,,,,2814,9193,1407,0,
 1654530058202.81030273437,,,,,,2774,8944,1387,0,
 1654530058210.10400390625,,,,75,0,,,,
 1654530058214.22387695312,-0.07397460937,0.30578613281,-0.97827148437,,,,,,,,
 1654530058242.97143554687,,,,,,2762,7705,1381,0,
 1654530058282.64428710937,,,,,,2726,5577,1363,0,
 1654530058291.31127929687,-0.0771484375,0.30200195312,-0.98046875,,,,,,,,
 1654530058323.01904296875,,,,,,2726,2748,1363,0,
 1654530058363.21069335937,,,,,,2846,-335,1423,0,
 1654530058371.57250976562,-0.07348632812,0.29919433593,-0.97937011718,,,,,,,,
 1654530058403.55493164062,,,,,,2990,-3358,1495,0,
 1654530058492.8798828125,-0.06652832031,0.30212402343,-0.97473144531,,,,,,,,
 1654530058497.30493164062,,,,,,3126,-5900,1563,0,
 1654530058524.49609375,,,,,,3182,-8514,1591,0,
 1654530058532.33911132812,-0.06640625,0.30651855468,-0.96948242187,,,,,,,,
 1654530058565.23706054687,,,,,,3166,-8357,1583,0,
 1654530058604.84887695312,,,,,,3158,-7280,1579,0,
 1654530058612.2646484375,-0.07055664062,0.30444335937,-0.98059082031,,,,,,,,
 1654530058645.28466796875,,,,,,3166,-5443,1583,0,
 1654530058685.41528320312,,,,,,3150,-3182,1575,0,
 1654530058692.953125,-0.07458496093,0.30249023437,-0.98046875,,,,,,,,
 1654530058725.72900390625,,,,,,3150,-884,1575,0,
 1654530058765.98168945312,,,,,,3126,1082,1563,0,
 1654530058773.3974609375,-0.07434082031,0.30358886718,-0.97216796875,,,,,,,,
 1654530058806.72265625,,,,,,3118,2401,1559,0,
 1654530058846.48706054687,,,,,,3102,2820,1551,0,
 1654530058853.87231445312,-0.06701660156,0.30310058593,-0.97961425781,,,,,,,,
 1654530058887.83837890625,,,,,,3070,2162,1535,0,
 1654530058892.416015625,,,,78,0,,,,
 1654530058929.80004882812,,,,,,3030,435,1515,0,
 1654530058934.5302734375,-0.0634765625,0.30285644531,-0.986328125,,,,,,,,
 1654530058967.51977539062,,,,,,3070,-2056,1535,0,
 1654530059010.15283203125,,,,,,3238,-4995,1619,0,
 1654530059015.0966796875,-0.06506347656,0.30065917968,-0.98425292968,,,,,,,,
 1654530059047.87255859375,,,,,,3382,-7959,1691,0,
 1654530059090.90234375,,,,,,3454,-10574,1727,0,
 1654530059128.19482421875,,,,,,3510,-12405,1755,0,
 1654530059171.31616210937,,,,,,3518,-13154,1759,0,
 1654530059209.00537109375,,,,,,3550,-12576,1775,0,
 1654530059252.00463867187,-0.06323242187,0.30261230468,-0.9765625,,,,,,,,
 1654530059256.21606445312,,,,,,3518,-10686,1759,0,
 1654530059289.66333007812,,,,,,3510,-7632,1755,0,
 1654530059333.54760742187,-0.06494140625,0.29431152343,-0.9765625,,,,,,,,
 1654530059337.91162109375,,,,,,3502,-3730,1751,0,
 1654530059370.16870117187,,,,,,3478,607,1739,0,
 1654530059413.32055664062,-0.06469726562,0.29260253906,-0.96923828125,,,,,,,,
 1654530059417.4404296875,,,,,,3438,4903,1719,0,
 1654530059491.87280273437,,,,,,3382,8656,1691,0,
 1654530059502.4013671875,,,,,,3326,11380,1663,0,
 1654530059531.30151367187,,,,,,3286,12766,1643,0,
 1654530059574.9111328125,-0.06494140625,0.28930664062,-0.98229980468,,,,,,,,
 1654530059579.12255859375,,,,,,3198,12640,1599,0,
 1654530059583.73071289062,,,,80,0,,,,
 1654530059612.35620117187,,,,,,3102,11074,1551,0,
 1654530059654.77563476562,-0.06469726562,0.29541015625,-0.982421875,,,,,,,,
 1654530059658.92602539062,,,,,,3070,8308,1535,0,
 1654530059692.49536132812,,,,,,3158,4771,1579,0,
 1654530059736.47119140625,-0.06872558593,0.30029296875,-0.97302246093,,,,,,,,
 1654530059740.59106445312,,,,,,3262,900,1631,0,
 1654530059772.93969726562,,,,,,3310,-2810,1655,0,
 1654530059815.90844726562,-0.07165527343,0.3037109375,-0.97595214843,,,,,,,,
 1654530059820.11987304687,,,,,,3310,-5864,1655,0,
 1654530059853.4755859375,,,,,,3278,-7872,1639,0,
 1654530059896.38330078125,-0.06774902343,0.30419921875,-0.97729492187,,,,,,,,
 1654530059900.74731445312,,,,,,3222,-8608,1611,0,
 1654530059934.0419921875,,,,,,3150,-8044,1575,0,
 1654530059977.1328125,-0.07019042968,0.30029296875,-0.9716796875,,,,,,,,
 1654530059981.19165039062,,,,,,3118,-6317,1559,0,
 1654530060014.66943359375,,,,,,3070,-3749,1535,0,
 1654530060051.26000976562,-0.07336425781,0.30151367187,-0.96691894531,,,,,,,,
 1654530060094.9306640625,,,,,,2942,-814,1471,0,
 1654530060131.0634765625,-0.07482910156,0.30419921875,-0.96472167968,,,,,,,,
 1654530060175.4970703125,,,,,,2814,2078,1407,0,
 1654530060210.98901367187,-0.07336425781,0.3076171875,-0.96997070312,,,,,,,,
 1654530060256.03295898437,,,,,,2686,4416,1343,0,
 1654530060291.18920898437,-0.07275390625,0.31127929687,-0.97351074218,,,,,,,,
 1654530060336.56884765625,,,,,,2602,5819,1301,0,
 1654530060371.02319335937,-0.07666015625,0.31298828125,-0.97412109375,,,,,,,,
 1654530060417.5625,,,,,,2846,6185,1423,0,
 1654530060487.20361328125,-0.07946777343,0.31262207031,-0.9794921875,,,,,,,,
 1654530060503.744140625,,,,77,0,,,,
 1654530060537.86279296875,-0.08081054687,0.3125,-0.98107910156,,,,,,,,
 1654530060541.79956054687,,,,,,2862,3345,1431,0,
 1654530060578.35961914062,,,,,,2814,608,1407,0,
 1654530060616.07934570312,-0.07934570312,0.31457519531,-0.97448730468,,,,,,,,
 1654530060622.21337890625,,,,,,2766,-2512,1383,0,
 1654530060674.3984375,,,,95,100,,,,
 1654530060677.41967773437,,,,,,,,,,95
 1654530060680.56298828125,,,,,,2710,-5601,1355,0,
 1654530060696.55419921875,-0.07763671875,0.31860351562,-0.96618652343,,,,,,,,
 1654530060702.87133789062,,,,,,2686,-8244,1343,0,
 1654530060771.10864257812,-0.0810546875,0.32153320312,-0.96752929687,,,,,,,,
 1654530060781.91186523437,,,,,,2646,-10060,1323,0,
 1654530060820.24194335937,,,,,,2622,-10812,1311,0,
 1654530060850.94262695312,-0.08154296875,0.31774902343,-0.97131347656,,,,,,,,
 1654530060862.142578125,,,,,,2602,-10441,1301,0,
 1654530060900.56420898437,,,,,,2558,-9063,1279,0,
 1654530060930.95971679687,-0.07653808593,0.30444335937,-0.9677734375,,,,,,,,
 1654530060942.220703125,,,,,,2550,-6954,1275,0,
 1654530061011.068359375,-0.07214355468,0.29724121093,-0.97351074218,,,,,,,,
 1654530061021.87158203125,,,,,,2774,-4326,1387,0,
 1654530061061.91064453125,,,,,,2934,-1661,1467,0,
 1654530061090.90234375,-0.07116699218,0.30432128906,-0.97619628906,,,,,,,,
 1654530061102.04125976562,,,,,,3070,638,1535,0,
 1654530061142.2939453125,,,,,,3254,2260,1627,0,
 1654530061171.01098632812,-0.06970214843,0.31811523437,-0.95971679687,,,,,,,,
 1654530061182.30249023437,,,,,,3454,3029,1727,0,
 1654530061223.74536132812,,,,,,3630,2925,1815,0,
 1654530061228.65869140625,,,,78,0,,,,
 1654530061251.302734375,-0.06372070312,0.33276367187,-0.94995117187,,,,,,,,
 1654530061263.17407226562,,,,,,3838,2069,1919,0,
 1654530061303.15209960937,,,,,,4062,673,2031,0,
 1654530061330.86206054687,-0.05786132812,0.35534667968,-0.94750976562,,,,,,,,
 1654530061343.587890625,,,,,,4222,-932,2111,0,
 1654530061383.87109375,,,,,,4414,-2375,2207,0,
 1654530061411.03173828125,-0.05822753906,0.3720703125,-0.94213867187,,,,,,,,
 1654530061424.3984375,,,,,,4606,-3321,2303,0,
 1654530061490.37744140625,,,,,,4782,-3548,2391,0,
 1654530061506.64331054687,,,,,,4958,-2922,2479,0,
 1654530061544.91235351562,,,,,,5102,-1476,2551,0,
 1654530061570.82177734375,-0.080078125,0.41247558593,-0.92419433593,,,,,,,,
 1654530061625.326171875,,,,,,5562,758,2781,0,
 1654530061651.02197265625,-0.08837890625,0.42895507812,-0.90209960937,,,,,,,,
 1654530061665.853515625,,,,,,5934,3445,2967,0,
 1654530061705.892578125,,,,,,6270,6179,3135,0,
 1654530061732.07666015625,-0.083984375,0.4501953125,-0.90014648437,,,,,,,,
 1654530061746.419921875,,,,,,6558,8571,3279,0,
 1654530061786.458984375,,,,,,6830,10252,3415,0,
 1654530061810.78149414062,-0.07043457031,0.48718261718,-0.88879394531,,,,,,,,
 1654530061826.8642578125,,,,,,7038,10990,3519,0,
 1654530061867.6357421875,,,,,,7254,10654,3627,0,
 1654530061872.57958984375,,,,80,0,,,,
 1654530061891.01220703125,-0.05053710937,0.52416992187,-0.87194824218,,,,,,,,
 1654530061907.4306640625,,,,,,7422,9245,3711,0,
 1654530061948.62939453125,,,,,,7614,6948,3807,0,
 1654530061971.05981445312,-0.02868652343,0.56860351562,-0.84228515625,,,,,,,,
 1654530061989.18725585937,,,,,,7550,3903,0,3775,
 1654530062028.5244140625,,,,,,7486,451,2175,1568,
 1654530062050.7412109375,-0.00512695312,0.60815429687,-0.79614257812,,,,,,,,
 1654530062068.59399414062,,,,,,7422,-3020,2271,1440,
 1654530062108.6025390625,,,,,,7550,-6092,2367,1408,
 1654530062131.0634765625,0.01330566406,0.63269042968,-0.76843261718,,,,,,,,
 1654530062160.17724609375,,,,93,100,,,,
 1654530062163.25952148437,,,,,,,,,,93
 1654530062166.341796875,,,,,,7646,-8573,2447,1376,
 1654530062189.4130859375,,,,,,7758,-10402,2535,1344,
 1654530062211.1416015625,0.02490234375,0.6484375,-0.76684570312,,,,,,,,
 1654530062229.6962890625,,,,,,7838,-11449,2607,1312,
 1654530062290.70092773437,0.03564453125,0.6494140625,-0.77563476562,,,,,,,,
 1654530062310.23217773437,,,,,,8254,-11710,2847,1280,
 1654530062350.27124023437,,,,,,8414,-11523,2959,1248,
 1654530062371.0537109375,0.03857421875,0.64892578125,-0.77331542968,,,,,,,,
 1654530062390.8291015625,,,,,,8574,-11123,3071,1216,
 1654530062430.80712890625,,,,,,8702,-10791,3167,1184,
 1654530062496.60302734375,0.0263671875,0.69445800781,-0.7275390625,,,,,,,,
 1654530062500.66186523437,,,,,,8702,-10845,3199,1152,
 1654530062531.6982421875,0.0009765625,0.76794433593,-0.67492675781,,,,,,,,
 1654530062551.87036132812,,,,,,8670,-12631,3247,1088,
 1654530062592.45874023437,,,,,,8638,-14410,3263,1056,
 1654530062611.01342773437,-0.02551269531,0.81042480468,-0.63781738281,,,,,,,,
 1654530062632.19262695312,,,,,,8574,-16558,3263,1024,
 1654530062672.47583007812,,,,,,8510,-18776,3263,992,
 1654530062691.06103515625,-0.041015625,0.82397460937,-0.61743164062,,,,,,,,
 1654530062752.95068359375,,,,,,8558,-20826,3319,960,
 1654530062770.62036132812,-0.04418945312,0.81469726562,-0.630859375,,,,,,,,
 1654530062793.50854492187,,,,,,8542,-22301,3343,928,
 1654530062833.9443359375,,,,,,8558,-22915,3383,896,
 1654530062850.97314453125,-0.04870605468,0.79162597656,-0.65795898437,,,,,,,,
 1654530062873.80029296875,,,,,,8574,-22425,3423,864,
 1654530062914.11401367187,,,,,,8622,-20745,3479,832,
 1654530062931.99731445312,-0.05920410156,0.76525878906,-0.68310546875,,,,,,,,
 1654530062954.33618164062,,,,,,8702,-17873,3551,800,
 1654530062994.5888671875,,,,,,8894,-13989,3679,768,
 1654530063010.580078125,-0.07446289062,0.73303222656,-0.71154785156,,,,,,,,
 1654530063036.42846679687,,,,,,9054,-9368,3791,736,
 1654530063075.09423828125,,,,,,8990,-4475,1899,2596,
 1654530063090.96337890625,-0.08374023437,0.70141601562,-0.73522949218,,,,,,,,
 1654530063115.46899414062,,,,,,8926,354,1975,2488,
 1654530063155.66064453125,,,,,,8990,4834,2039,2456,
 1654530063170.98046875,-0.0869140625,0.67419433593,-0.75354003906,,,,,,,,
 1654530063195.97436523437,,,,,,8998,8569,2075,2424,
 1654530063236.22705078125,,,,,,9006,11353,2111,2392,
 1654530063250.53979492187,-0.09265136718,0.65515136718,-0.77453613281,,,,,,,,
 1654530063276.54077148437,,,,,,8998,13114,2139,2360,
 1654530063316.76293945312,,,,,,8974,13838,2159,2328,
 1654530063331.0146484375,-0.09533691406,0.65466308593,-0.78015136718,,,,,,,,
 1654530063397.97021484375,,,,,,8686,13581,2047,2296,
 1654530063402.97509765625,,,,73,0,,,,
 1654530063411.06225585937,-0.09338378906,0.64404296875,-0.7880859375,,,,,,,,
 1654530063489.88916015625,,,,,,8494,12636,1983,2264,
 1654530063500.66186523437,,,,,,8350,11324,1943,2232,
 1654530063518.30102539062,,,,,,8286,9983,1943,2200,
 1654530063558.58422851562,,,,,,8238,8907,1951,2168,
 1654530063570.69970703125,-0.09887695312,0.53332519531,-0.84777832031,,,,,,,,
 1654530063598.8369140625,,,,,,8190,8288,1959,2136,
 1654530063702.13891601562,,,,94,100,,,,
 1654530063705.19067382812,,,,,,,,,,94
 1654530063708.578125,,,,94,100,,,,
 1654530063716.87890625,,,,,,,,,,94
 1654530063720.11376953125,-0.10864257812,0.52905273437,-0.85815429687,,,,,,,,
 1654530063724.35571289062,,,,,,8334,9179,2095,2072,
 1654530063733.87719726562,-0.11743164062,0.52502441406,-0.86401367187,,,,,,,,
 1654530063738.02758789062,,,,,,8430,10668,2175,2040,
 1654530063760.091796875,,,,,,8518,12697,2251,2008,
 1654530063800.64965820312,,,,,,8542,15035,2295,1976,
 1654530063810.84252929687,-0.12243652343,0.52209472656,-0.86779785156,,,,,,,,
 1654530063840.47509765625,,,,,,8542,17409,2327,1944,
 1654530063880.75830078125,,,,,,8542,19529,2359,1912,
 1654530063890.73754882812,-0.12487792968,0.52380371093,-0.85815429687,,,,,,,,
 1654530063921.1025390625,,,,,,8542,21087,2391,1880,
 1654530063961.11108398437,,,,,,8550,21838,2427,1848,
 1654530063970.4189453125,-0.12805175781,0.53295898437,-0.84936523437,,,,,,,,
 1654530064001.48583984375,,,,,,8518,21580,2443,1816,
 1654530064041.67749023437,,,,,,8486,20215,2459,1784,
 1654530064050.64965820312,-0.12854003906,0.53930664062,-0.84228515625,,,,,,,,
 1654530064081.9912109375,,,,,,8446,17671,2471,1752,
 1654530064122.36596679687,,,,,,8366,14024,2463,1720,
 1654530064130.697265625,-0.13073730468,0.54016113281,-0.84509277343,,,,,,,,
 1654530064162.52709960937,,,,,,8294,9466,2459,1688,
 1654530064202.87133789062,,,,,,8230,4198,2459,1656,
 1654530064210.37866210937,-0.12768554687,0.54370117187,-0.85583496093,,,,,,,,
 1654530064243.33764648437,,,,,,8222,-1506,2487,1624,
 1654530064283.31567382812,,,,,,8238,-7329,2527,1592,
 1654530064290.94506835937,-0.123046875,0.54541015625,-0.85559082031,,,,,,,,
 1654530064323.65991210937,,,,,,8238,-13017,2559,1560,
 1654530064363.8515625,,,,,,8174,-18370,2559,1528,
 1654530064372.30493164062,-0.12512207031,0.54309082031,-0.86181640625,,,,,,,,
 1654530064404.34838867187,,,,,,8110,-23168,2559,1496,
 1654530064492.23901367187,-0.1240234375,0.53881835937,-0.86779785156,,,,,,,,
 1654530064496.35888671875,,,,,,8102,-27270,2587,1464,
 1654530064525.13696289062,,,,,,8038,-32768,2619,1400,
 1654530064532.94946289062,-0.11828613281,0.53894042968,-0.85815429687,,,,,,,,
 1654530064565.23706054687,,,,,,7982,-32768,2623,1368,
 1654530064605.48974609375,,,,,,7966,-32768,2647,1336,
 1654530064613.02758789062,-0.11657714843,0.54418945312,-0.85144042968,,,,,,,,
 1654530064645.9560546875,,,,,,7910,-32768,2651,1304,
 1654530064688.61962890625,,,,,,7854,-32768,2655,1272,
 1654530064693.685546875,-0.11376953125,0.55285644531,-0.84838867187,,,,,,,,
 1654530064726.55297851562,,,,,,7790,-32768,2655,1240,
 1654530064769.33862304687,,,,,,7726,-32768,2655,1208,
 1654530064774.16040039062,-0.11560058593,0.55798339843,-0.84484863281,,,,,,,,
 1654530064806.90576171875,,,,,,7710,-32768,2679,1176,
 1654530064849.935546875,,,,,,7726,-32768,2719,1144,
 1654530064930.31884765625,,,,,,7726,-32768,2751,1112,
 1654530064967.9775390625,,,,,,7662,-32768,2751,1080,
 1654530065010.82421875,,,,,,7598,-32768,2751,1048,
 1654530065048.51342773437,,,,,,7502,-30607,2735,1016,
 1654530065091.78735351562,-0.12048339843,0.55700683593,-0.83801269531,,,,,,,,
 1654530065095.9072265625,,,,,,7406,-25534,2719,984,
 1654530065128.92724609375,,,,,,7334,-19279,2715,952,
 1654530065152.73095703125,,,,93,100,,,,
 1654530065155.81323242187,,,,,,,,,,93
 1654530065172.78100585937,-0.12707519531,0.53173828125,-0.84106445312,,,,,,,,
 1654530065176.83984375,,,,,,7246,-12006,2703,920,
 1654530065210.1650390625,,,,,,7150,-4035,2687,888,
 1654530065254.26293945312,-0.09265136718,0.53674316406,-0.77258300781,,,,,,,,
 1654530065258.44384765625,,,,,,7070,4276,2679,856,
 1654530065290.39575195312,,,,,,6982,12414,2667,824,
 1654530065333.24243164062,-0.04943847656,0.56506347656,-0.75427246093,,,,,,,,
 1654530065337.728515625,,,,,,6918,19941,2667,792,
 1654530065370.99267578125,,,,,,6926,26398,2703,760,
 1654530065414.0224609375,-0.03552246093,0.55847167968,-0.78637695312,,,,,,,,
 1654530065418.11181640625,,,,,,7006,31395,2775,728,
 1654530065492.33056640625,,,,,,7022,32767,2815,696,
 1654530065503.8662109375,,,,,,6958,32767,2815,664,
 1654530065508.56591796875,,,,66,0,,,,
 1654530065532.27807617187,,,,,,6926,32767,2831,632,
 1654530065576.07080078125,-0.11352539062,0.44689941406,-0.90112304687,,,,,,,,
 1654530065580.31274414062,,,,,,6862,32767,2831,600,
 1654530065612.56982421875,,,,,,6830,30943,2847,568,
 1654530065655.41650390625,-0.19567871093,0.31677246093,-0.99975585937,,,,,,,,
 1654530065659.8720703125,,,,,,6798,27373,2863,536,
 1654530065693.04467773437,,,,,,6734,23586,2863,504,
 1654530065736.166015625,-0.20178222656,0.345703125,-1.03002929687,,,,,,,,
 1654530065740.22485351562,,,,,,6686,20037,2871,472,
 1654530065773.70263671875,,,,,,6638,17084,2879,440,
 1654530065816.57983398437,-0.11486816406,0.4404296875,-0.97436523437,,,,,,,,
 1654530065820.79125976562,,,,,,6566,14958,2875,408,
 1654530065854.17749023437,,,,,,6502,13693,2875,376,
 1654530065934.49975585937,,,,,,6446,13157,2879,344,
 1654530065970.35791015625,-0.0546875,0.51696777343,-0.92126464843,,,,,,,,
 1654530066015.00512695312,,,,,,6558,13097,2967,312,
 1654530066050.22241210937,-0.07238769531,0.53503417968,-0.88818359375,,,,,,,,
 1654530066095.57153320312,,,,,,6574,13101,3007,280,
 1654530066130.05639648437,-0.08166503906,0.54028320312,-0.876953125,,,,,,,,
 1654530066176.107421875,,,,,,6566,12737,3035,248,
 1654530066210.1650390625,-0.08386230468,0.53442382812,-0.86755371093,,,,,,,,
 1654530066256.64331054687,,,,,,6510,11723,3039,216,
 1654530066296.712890625,-0.08703613281,0.53381347656,-0.865234375,,,,,,,,
 1654530066300.86328125,,,,,,6494,9753,3063,184,
 1654530066337.14868164062,,,,,,6430,6718,3063,152,
 1654530066375.08203125,-0.1103515625,0.498046875,-0.94030761718,,,,,,,,
 1654530066381.33813476562,,,,,,6382,2640,3071,120,
 1654530066418.26440429687,,,,,,6318,-2220,3071,88,
 1654530066496.32836914062,-0.13903808593,0.484375,-0.94714355468,,,,,,,,
 1654530066500.66186523437,,,,,,6254,-7513,3071,56,
 1654530066530.17236328125,-0.12524414062,0.50415039062,-0.86901855468,,,,,,,,
 1654530066541.73852539062,,,,,,6142,-17309,3071,0,
 1654530066578.96997070312,,,,,,6126,-20810,3063,0,
 1654530066609.91479492187,-0.07507324218,0.44982910156,-0.82116699218,,,,,,,,
 1654530066621.51147460937,,,,,,6142,-22826,3071,0,
 1654530066659.6279296875,,,,,,6238,-23133,3119,0,
 1654530066690.08447265625,-0.06311035156,0.40783691406,-0.845703125,,,,,,,,
 1654530066701.22338867187,,,,,,6334,-21710,3167,0,
 1654530066770.1015625,-0.08569335937,0.4423828125,-0.89575195312,,,,,,,,
 1654530066781.11840820312,,,,,,6398,-18784,3199,0,
 1654530066820.45556640625,,,,,,6398,-14844,3199,0,
 1654530066849.87451171875,-0.08898925781,0.49291992187,-0.88256835937,,,,,,,,
 1654530066861.37963867187,,,,,,6430,-10414,3215,0,
 1654530066900.93041992187,,,,,,6446,-6158,3223,0,
 1654530066930.04418945312,-0.08630371093,0.52062988281,-0.87121582031,,,,,,,,
 1654530066941.3662109375,,,,,,6454,-2654,3227,0,
 1654530066981.46630859375,,,,,,6446,-458,3223,0,
 1654530067010.06127929687,-0.08813476562,0.53051757812,-0.86376953125,,,,,,,,
 1654530067021.90209960937,,,,,,6462,45,3231,0,
 1654530067063.0703125,,,,,,6462,-1308,3231,0,
 1654530067067.67846679687,,,,59,0,,,,
 1654530067089.83422851562,-0.09216308593,0.537109375,-0.86352539062,,,,,,,,
 1654530067102.43798828125,,,,,,6462,-4420,3231,0,
 1654530067142.75170898437,,,,,,6478,-8971,3239,0,
 1654530067170.15649414062,-0.08984375,0.53918457031,-0.86022949218,,,,,,,,
 1654530067198.99560546875,,,,93,100,,,,
 1654530067202.01684570312,,,,,,,,,,93
 1654530067251.76049804687,,,,95,100,,,,
 1654530067254.81225585937,,,,,,,,,,95
 1654530067263.47924804687,,,,93,100,,,,
 1654530067266.98876953125,,,,,,,,,,93
 1654530067269.79638671875,-0.08679199218,0.53698730468,-0.85974121093,,,,,,,,
 1654530067274.40454101562,,,,,,6462,-14433,3231,0,
 1654530067280.87426757812,,,,,,6494,-20130,3247,0,
 1654530067303.82348632812,,,,,,6462,-25385,3231,0,
 1654530067330.00756835937,-0.08837890625,0.54223632812,-0.85327148437,,,,,,,,
 1654530067344.22875976562,,,,,,6526,-29491,3263,0,
 1654530067384.54248046875,,,,,,6606,-31916,3303,0,
 1654530067410.14672851562,-0.09326171875,0.54260253906,-0.84716796875,,,,,,,,
 1654530067424.61206054687,,,,,,6654,-32287,3327,0,
 1654530067490.16381835937,,,,,,6702,-30488,3351,0,
 1654530067507.07055664062,,,,,,6750,-26655,3375,0,
 1654530067545.4921875,,,,,,6750,-21162,3375,0,
 1654530067569.75366210937,-0.09606933593,0.54553222656,-0.84802246093,,,,,,,,
 1654530067585.68383789062,,,,,,6742,-14551,3371,0,
 1654530067625.75341796875,,,,,,6782,-7445,3391,0,
 1654530067650.07592773437,-0.09790039062,0.54724121093,-0.85302734375,,,,,,,,
 1654530067666.73852539062,,,,,,6782,-504,3391,0,
 1654530067706.31982421875,,,,,,6782,5664,3391,0,
 1654530067730.0625,-0.10083007812,0.54907226562,-0.85534667968,,,,,,,,
 1654530067746.84716796875,,,,,,6766,10550,3383,0,
 1654530067786.85571289062,,,,,,6750,13868,3375,0,
 1654530067809.71337890625,-0.10021972656,0.546875,-0.85534667968,,,,,,,,
 1654530067827.29150390625,,,,,,6734,15503,3367,0,
 1654530067868.09350585937,,,,,,6742,15498,3371,0,
 1654530067873.12890625,,,,58,0,,,,
 1654530067890.03564453125,-0.095703125,0.53845214843,-0.85229492187,,,,,,,,
 1654530067907.85791015625,,,,,,6702,14125,3351,0,
 1654530067947.92749023437,,,,,,6710,11824,3355,0,
 1654530067970.052734375,-0.08837890625,0.54296875,-0.83935546875,,,,,,,,
 1654530067988.45483398437,,,,,,6718,9070,3359,0,
 1654530068028.46337890625,,,,,,6766,6368,3383,0,
 1654530068049.91723632812,-0.08605957031,0.55224609375,-0.83642578125,,,,,,,,
 1654530068068.99072265625,,,,,,6830,3974,3415,0,
 1654530068108.99926757812,,,,,,6846,2225,3423,0,
 1654530068130.97192382812,-0.09008789062,0.556640625,-0.84655761718,,,,,,,,
 1654530068149.89282226562,,,,,,6846,1354,3423,0,
 1654530068189.50463867187,,,,,,6846,1341,3423,0,
 1654530068210.01245117187,-0.08996582031,0.55456542968,-0.85339355468,,,,,,,,
 1654530068230.03198242187,,,,,,6830,2078,3415,0,
 1654530068301.32104492187,,,,93,100,,,,
 1654530068309.43872070312,,,,,,,,,,93
 1654530068312.24633789062,-0.09191894531,0.54736328125,-0.85559082031,,,,,,,,
 1654530068318.71606445312,,,,,,6830,3342,3415,0,
 1654530068350.912109375,,,,,,6846,4840,3423,0,
 1654530068370.3212890625,-0.09606933593,0.5439453125,-0.8544921875,,,,,,,,
 1654530068391.04272460937,,,,,,6846,6212,3423,0,
 1654530068431.14282226562,,,,,,6838,7205,3419,0,
 1654530068497.36596679687,-0.09167480468,0.54760742187,-0.84875488281,,,,,,,,
 1654530068501.51635742187,,,,,,6838,7595,3419,0,
 1654530068529.59252929687,-0.08654785156,0.54919433593,-0.84399414062,,,,,,,,
 1654530068552.2060546875,,,,,,6830,6421,3415,0,
 1654530068592.82495117187,,,,,,6814,4870,3407,0,
 1654530068610.00634765625,-0.08520507812,0.54797363281,-0.84387207031,,,,,,,,
 1654530068632.5283203125,,,,,,6846,2885,3423,0,
 1654530068672.8115234375,,,,,,6894,723,3447,0,
 1654530068690.93896484375,-0.08557128906,0.54528808593,-0.84790039062,,,,,,,,
 1654530068753.28637695312,,,,,,6974,-1394,3487,0,
 1654530068769.79638671875,-0.08776855468,0.54504394531,-0.85717773437,,,,,,,,
 1654530068793.87475585937,,,,,,6974,-3269,3487,0,
 1654530068838.88818359375,,,,,,6974,-4749,3487,0,
 1654530068885.36645507812,-0.087890625,0.54602050781,-0.86462402343,,,,,,,,
 1654530068889.39477539062,,,,,,6998,-5771,3499,0,
 1654530068915.12109375,,,,,,6998,-6380,3499,0,
 1654530068929.80004882812,-0.087890625,0.54125976562,-0.86596679687,,,,,,,,
 1654530068954.916015625,,,,,,7006,-6560,3503,0,
 1654530068994.07006835937,,,,,,7022,-6460,3511,0,
 1654530069010.54956054687,-0.09094238281,0.53479003906,-0.8603515625,,,,,,,,
 1654530069035.8486328125,,,,,,7022,-6228,3511,0,
 1654530069075.49096679687,,,,,,7030,-6024,3515,0,
 1654530069089.95629882812,-0.09350585937,0.53491210937,-0.85461425781,,,,,,,,
 1654530069116.01831054687,,,,,,7022,-5941,3511,0,
 1654530069156.05737304687,,,,,,7022,-6025,3511,0,
 1654530069169.60717773437,-0.09045410156,0.53918457031,-0.86022949218,,,,,,,,
 1654530069196.37109375,,,,,,6998,-6365,3499,0,
 1654530069236.654296875,,,,,,6974,-6930,3487,0,
 1654530069249.4716796875,-0.0849609375,0.5380859375,-0.86499023437,,,,,,,,
 1654530069277.36474609375,,,,,,6974,-7559,3487,0,
 1654530069317.15966796875,,,,,,7006,-8146,3503,0,
 1654530069329.82446289062,-0.08337402343,0.54064941406,-0.86193847656,,,,,,,,
 1654530069357.748046875,,,,,,7038,-8551,3519,0,
 1654530069409.3837890625,,,,93,100,,,,
 1654530069412.5576171875,,,,,,,,,,93
 1654530069415.42626953125,,,,,,7022,-8691,3511,0,
 1654530069420.58374023437,-0.08471679687,0.54187011718,-0.85424804687,,,,,,,,
 1654530069490.01123046875,,,,,,7038,-8456,3519,0,
 1654530069501.45532226562,,,,,,7038,-7830,3519,0,
 1654530069518.69775390625,,,,,,7038,-6872,3519,0,
 1654530069558.95043945312,,,,,,7070,-5600,3535,0,
 1654530069569.75366210937,-0.08154296875,0.54321289062,-0.85693359375,,,,,,,,
 1654530069599.29467773437,,,,,,7070,-4167,3535,0,
 1654530069639.30322265625,,,,,,7038,-2772,3519,0,
 1654530069649.52661132812,-0.08703613281,0.54309082031,-0.85717773437,,,,,,,,
 1654530069679.98315429687,,,,,,7070,-1611,3535,0,
 1654530069719.80859375,,,,,,7038,-881,3519,0,
 1654530069729.39111328125,-0.08850097656,0.54504394531,-0.85729980468,,,,,,,,
 1654530069760.15283203125,,,,,,7070,-672,3535,0,
 1654530069801.2294921875,,,,,,7070,-1000,3535,0,
 1654530069808.85888671875,,,,58,0,,,,
 1654530069812.76513671875,-0.083984375,0.54602050781,-0.86254882812,,,,,,,,
 1654530069840.99389648437,,,,,,7038,-2072,3519,0,
 1654530069880.97192382812,,,,,,7038,-3693,3519,0,
 1654530069889.42529296875,-0.0830078125,0.54858398437,-0.85974121093,,,,,,,,
 1654530069921.52978515625,,,,,,7038,-5722,3519,0,
 1654530069960.47021484375,,,,,,7038,-7998,3519,0,
 1654530069969.35083007812,-0.08557128906,0.55078125,-0.85437011718,,,,,,,,
 1654530070001.82153320312,,,,,,7086,-10220,3543,0,
 1654530070042.01318359375,,,,,,7102,-12220,3551,0,
 1654530070049.7646484375,-0.09204101562,0.54870605468,-0.85803222656,,,,,,,,
 1654530070082.81518554687,,,,,,7134,-13735,3567,0,
 1654530070122.7626953125,,,,,,7134,-14658,3567,0,
 1654530070130.51416015625,-0.09191894531,0.55078125,-0.86193847656,,,,,,,,
 1654530070162.86279296875,,,,,,7150,-14851,3575,0,
 1654530070203.14599609375,,,,,,7166,-14288,3583,0,
 1654530070210.775390625,-0.08862304687,0.55493164062,-0.85327148437,,,,,,,,
 1654530070243.79541015625,,,,,,7166,-13053,3583,0,
 1654530070283.62084960937,,,,,,7166,-11240,3583,0,
 1654530070291.28076171875,-0.09130859375,0.55163574218,-0.85021972656,,,,,,,,
 1654530070324.08715820312,,,,,,7166,-9071,3583,0,
 1654530070364.18725585937,,,,,,7166,-6745,3583,0,
 1654530070372.82373046875,-0.09362792968,0.5458984375,-0.85827636718,,,,,,,,
 1654530070404.68408203125,,,,,,7166,-4505,3583,0,
 1654530070492.57470703125,-0.09265136718,0.54638671875,-0.86608886718,,,,,,,,
 1654530070496.69458007812,,,,,,7230,-2513,3615,0,
 1654530070532.33911132812,,,,,,,,,,93
 1654530070535.69604492187,,,,,,7230,-182,3615,0,
 1654530070540.57885742187,-0.09326171875,0.54870605468,-0.86145019531,,,,,,,,
 1654530070604.84887695312,,,,,,7246,84,3623,0,
 1654530070612.08154296875,-0.09240722656,0.54663085937,-0.85827636718,,,,,,,,
 1654530070647.14624023437,,,,,,7262,-166,3631,0,
 1654530070652.02905273437,,,,62,0,,,,
 1654530070689.01635742187,,,,,,7326,-845,3663,0,
 1654530070726.73608398437,,,,,,7358,-1794,3679,0,
 1654530070769.76586914062,,,,,,7382,-2810,3691,0,
 1654530070807.30249023437,,,,,,7390,-3700,3695,0,
 1654530070850.39331054687,,,,,,7390,-4331,3695,0,
 1654530070888.32666015625,,,,,,7390,-4464,3695,0,
 1654530070930.990234375,-0.09741210937,0.552734375,-0.85437011718,,,,,,,,
 1654530070935.17114257812,,,,,,7390,-4098,3695,0,
 1654530070968.67944335937,,,,,,7406,-3266,3703,0,
 1654530071011.49560546875,-0.099609375,0.54956054687,-0.85388183593,,,,,,,,
 1654530071015.92065429687,,,,,,7406,-2091,3703,0,
 1654530071049.21533203125,,,,,,7422,-708,3711,0,
 1654530071092.27563476562,-0.09545898437,0.54699707031,-0.85681152343,,,,,,,,
 1654530071096.3955078125,,,,,,7422,715,3711,0,
 1654530071129.81225585937,,,,,,7406,1944,3703,0,
 1654530071172.84204101562,-0.09655761718,0.54797363281,-0.85400390625,,,,,,,,
 1654530071176.93139648437,,,,,,7422,2819,3711,0,
 1654530071210.50073242187,,,,,,7422,3204,3711,0,
 1654530071253.22534179687,-0.09606933593,0.5556640625,-0.849609375,,,,,,,,
 1654530071257.40625,,,,,,7422,3028,3711,0,
 1654530071290.88403320312,,,,,,7422,2310,3711,0,
 1654530071333.73071289062,-0.0927734375,0.55725097656,-0.8505859375,,,,,,,,
 1654530071338.15576171875,,,,,,7486,1108,3743,0,
 1654530071371.60302734375,,,,,,7518,-432,3759,0,
 1654530071414.5107421875,-0.08801269531,0.5537109375,-0.85424804687,,,,,,,,
 1654530071418.60009765625,,,,,,7534,-2166,3767,0,
 1654530071493.64282226562,,,,,,7550,-3906,3775,0,
 1654530071504.87329101562,,,,,,7574,-5477,3787,0,
 1654530071532.85791015625,,,,,,7510,-6782,1263,2492,
 1654530071575.46044921875,-0.08239746093,0.55749511718,-0.85314941406,,,,,,,,
 1654530071580.0380859375,,,,,,7446,-7722,1270,2453,
 1654530071603.93334960937,,,,92,100,,,,
 1654530071612.32568359375,,,,,,,,,,92
 1654530071617.94091796875,,,,,,7400,-8251,1279,2421,
 1654530071649.19091796875,-0.08630371093,0.55383300781,-0.85327148437,,,,,,,,
 1654530071693.86865234375,,,,,,7336,-8416,1279,2389,
 1654530071729.26904296875,-0.08715820312,0.54602050781,-0.85754394531,,,,,,,,
 1654530071774.0078125,,,,,,7272,-8294,1279,2357,
 1654530071810.2626953125,-0.08654785156,0.54016113281,-0.86584472656,,,,,,,,
 1654530071854.66577148437,,,,,,7240,-8016,1295,2325,
 1654530071889.15063476562,-0.08935546875,0.53857421875,-0.861328125,,,,,,,,
 1654530071935.140625,,,,,,7192,-7721,1303,2293,
 1654530071969.25927734375,-0.08752441406,0.53674316406,-0.85607910156,,,,,,,,
 1654530072015.67651367187,,,,,,7232,-7500,1355,2261,
 1654530072056.05126953125,-0.08459472656,0.53381347656,-0.85888671875,,,,,,,,
 1654530072060.29321289062,,,,,,7224,-7456,1383,2229,
 1654530072096.2734375,,,,,,7176,-7629,1391,2197,
 1654530072136.068359375,-0.08630371093,0.53344726562,-0.86437988281,,,,,,,,
 1654530072140.49340820312,,,,,,7144,-8012,1407,2165,
 1654530072177.11450195312,,,,,,7096,-8539,1415,2133,
 1654530072214.13232421875,-0.08715820312,0.53430175781,-0.86694335937,,,,,,,,
 1654530072220.6630859375,,,,,,7048,-9134,1423,2101,
 1654530072257.61987304687,,,,,,7016,-9662,1439,2069,
 1654530072289.0224609375,-0.08544921875,0.53063964843,-0.869140625,,,,,,,,
 1654530072300.92431640625,,,,,,6952,-10012,1439,2037,
 1654530072338.06420898437,,,,,,6904,-10057,1447,2005,
 1654530072369.03955078125,-0.08776855468,0.52575683593,-0.86706542968,,,,,,,,
 1654530072380.88037109375,,,,,,6840,-9725,1447,1973,
 1654530072497.21337890625,-0.087890625,0.5234375,-0.86401367187,,,,,,,,
 1654530072501.48583984375,,,,,,6792,-9001,1455,1941,
 1654530072530.08081054687,-0.08264160156,0.51928710937,-0.86572265625,,,,,,,,
 1654530072541.9521484375,,,,,,6694,-6547,1470,1877,
 1654530072579.7939453125,,,,,,6632,-5048,1471,1845,
 1654530072609.02978515625,-0.08227539062,0.5224609375,-0.86853027343,,,,,,,,
 1654530072620.90112304687,,,,,,6616,-3556,1495,1813,
 1654530072660.32983398437,,,,,,6616,-2179,1527,1781,
 1654530072708.18139648437,,,,92,100,,,,
 1654530072711.41625976562,,,,,,,,,,92
 1654530072714.22387695312,-0.08728027343,0.52612304687,-0.87194824218,,,,,,,,
 1654530072718.74047851562,,,,,,6568,-1082,1535,1749,
 1654530072741.29296875,,,,,,6536,-316,1551,1717,
 1654530072768.94189453125,-0.091796875,0.5205078125,-0.87463378906,,,,,,,,
 1654530072781.11840820312,,,,,,6488,70,1559,1685,
 1654530072821.58471679687,,,,,,6440,80,1567,1653,
 1654530072849.17260742187,-0.0927734375,0.52099609375,-0.87475585937,,,,,,,,
 1654530072862.5087890625,,,,,,6376,-214,1567,1621,
 1654530072867.69677734375,,,,62,0,,,,
 1654530072901.9375,,,,,,6344,-700,1583,1589,
 1654530072929.06762695312,-0.09326171875,0.52014160156,-0.87072753906,,,,,,,,
 1654530072942.31225585937,,,,,,6280,-1266,1583,1557,
 1654530072982.3818359375,,,,,,6216,-1770,1583,1525,
 1654530073008.90161132812,-0.09045410156,0.51977539062,-0.86669921875,,,,,,,,
 1654530073022.787109375,,,,,,6184,-2096,1599,1493,
 1654530073063.25341796875,,,,,,6120,-2187,1599,1461,
 1654530073089.10180664062,-0.08801269531,0.51965332031,-0.86694335937,,,,,,,,
 1654530073103.4755859375,,,,,,6040,-2065,1591,1429,
 1654530073143.54516601562,,,,,,5992,-1718,1599,1397,
 1654530073169.17993164062,-0.087890625,0.51538085937,-0.86706542968,,,,,,,,
 1654530073183.919921875,,,,,,5912,-1202,1591,1365,
 1654530073224.0810546875,,,,,,5832,-617,1583,1333,
 1654530073253.01171875,,,,93,100,,,,
 1654530073261.22094726562,,,,,,,,,,93
 1654530073264.08959960937,-0.08483886718,0.51965332031,-0.86083984375,,,,,,,,
 1654530073270.92553710937,,,,,,5752,-76,1575,1301,
 1654530073305.28833007812,,,,,,5732,340,1597,1269,
 1654530073329.33618164062,-0.08227539062,0.52685546875,-0.865234375,,,,,,,,
 1654530073345.11376953125,,,,,,5728,521,1627,1237,
 1654530073385.4580078125,,,,,,5696,432,1643,1205,
 1654530073409.1396484375,-0.08422851562,0.53442382812,-0.87145996093,,,,,,,,
 1654530073425.64965820312,,,,,,5656,56,1655,1173,
 1654530073490.40795898437,,,,,,5608,-559,1663,1141,
 1654530073546.16357421875,,,,,,5572,-1339,1677,1109,
 1654530073569.173828125,-0.08605957031,0.53735351562,-0.86645507812,,,,,,,,
 1654530073586.751953125,,,,,,5528,-2198,1687,1077,
 1654530073626.72998046875,,,,,,5440,-3021,1675,1045,
 1654530073649.09936523437,-0.08911132812,0.52783203125,-0.86059570312,,,,,,,,
 1654530073667.25732421875,,,,,,5384,-3778,1679,1013,
 1654530073707.357421875,,,,,,5320,-4372,1679,981,
 1654530073728.78076171875,-0.09057617187,0.53063964843,-0.86413574218,,,,,,,,
 1654530073747.79321289062,,,,,,5272,-4781,1687,949,
 1654530073787.6796875,,,,,,5184,-4987,1675,917,
 1654530073809.13354492187,-0.08813476562,0.53405761718,-0.87097167968,,,,,,,,
 1654530073828.5732421875,,,,,,5120,-5067,1675,885,
 1654530073868.33764648437,,,,,,5064,-5046,1679,853,
 1654530073889.05908203125,-0.09008789062,0.53356933593,-0.87622070312,,,,,,,,
 1654530073908.95654296875,,,,,,4968,-5042,1663,821,
 1654530073948.90405273437,,,,,,4920,-5086,1671,789,
 1654530073968.74047851562,-0.09411621093,0.53442382812,-0.87768554687,,,,,,,,
 1654530073989.43139648437,,,,,,4856,-5248,1671,757,
 1654530074029.47045898437,,,,,,4856,-5522,1703,725,
 1654530074049.09326171875,-0.091796875,0.53271484375,-0.86584472656,,,,,,,,
 1654530074069.87573242187,,,,,,4832,-5914,1723,693,
 1654530074110.40307617187,,,,,,4824,-6365,1751,661,
 1654530074129.14086914062,-0.08862304687,0.53088378906,-0.86547851562,,,,,,,,
 1654530074150.716796875,,,,,,4792,-6803,1767,629,
 1654530074190.51171875,,,,,,4728,-7174,1767,597,
 1654530074208.7001953125,-0.09240722656,0.53002929687,-0.87158203125,,,,,,,,
 1654530074231.06958007812,,,,,,4680,-7402,1775,565,
 1654530074288.7783203125,-0.09411621093,0.52856445312,-0.8671875,,,,,,,,
 1654530074311.45288085937,,,,,,4648,-7408,1791,533,
 1654530074355.4287109375,,,,91,100,,,,
 1654530074358.48046875,,,,,,,,,,91
 1654530074361.56274414062,,,,,,4616,-7143,1807,501,
 1654530074369.8330078125,-0.09387207031,0.52783203125,-0.8671875,,,,,,,,
 1654530074392.14135742187,,,,,,4520,-6662,1791,469,
 1654530074432.27197265625,,,,,,4488,-5976,1807,437,
 1654530074499.16650390625,-0.09692382812,0.52856445312,-0.86828613281,,,,,,,,
 1654530074503.6220703125,,,,,,4440,-5183,1815,405,
 1654530074530.05029296875,-0.09729003906,0.5341796875,-0.86450195312,,,,,,,,
 1654530074553.48779296875,,,,,,4344,-3664,1831,341,
 1654530074593.74047851562,,,,,,4288,-3124,1835,309,
 1654530074609.06030273437,-0.09643554687,0.53369140625,-0.86596679687,,,,,,,,
 1654530074633.44384765625,,,,,,4248,-2800,1847,277,
 1654530074673.72705078125,,,,,,4232,-2729,1871,245,
 1654530074688.61962890625,-0.09704589843,0.52819824218,-0.86865234375,,,,,,,,
 1654530074715.07836914062,,,,,,4224,-2857,1899,213,
 1654530074720.4189453125,,,,62,0,,,,
 1654530074754.3544921875,,,,,,4224,-3145,1931,181,
 1654530074768.97241210937,-0.09521484375,0.52673339843,-0.86157226562,,,,,,,,
 1654530074794.66821289062,,,,,,4200,-3452,1951,149,
 1654530074834.73779296875,,,,,,4152,-3731,1959,117,
 1654530074848.92846679687,-0.09240722656,0.52282714843,-0.86145019531,,,,,,,,
 1654530074875.08203125,,,,,,4104,-3854,1967,85,
 1654530074915.91455078125,,,,,,4056,-3743,1975,53,
 1654530074928.57934570312,-0.09094238281,0.52319335937,-0.86767578125,,,,,,,,
 1654530074955.73999023437,,,,,,4008,-3319,1983,21,
 1654530074995.87060546875,,,,,,3966,-2600,1983,0,
 1654530075008.77954101562,-0.08935546875,0.52429199218,-0.86950683593,,,,,,,,
 1654530075036.52001953125,,,,,,3966,-1587,1983,0,
 1654530075076.34545898437,,,,,,3998,-354,1999,0,
 1654530075089.95629882812,-0.09167480468,0.51647949218,-0.87243652343,,,,,,,,
 1654530075116.9033203125,,,,,,3990,940,1995,0,
 1654530075156.88134765625,,,,,,3966,2171,1983,0,
 1654530075168.5390625,-0.0927734375,0.51501464843,-0.86962890625,,,,,,,,
 1654530075197.31713867187,,,,,,3966,3213,1983,0,
 1654530075237.47827148437,,,,,,3950,3957,1975,0,
 1654530075248.7392578125,-0.09436035156,0.51843261718,-0.87255859375,,,,,,,,
 1654530075317.92260742187,,,,,,4014,4366,2007,0,
 1654530075328.78686523437,-0.09497070312,0.52001953125,-0.88012695312,,,,,,,,
 1654530075358.69409179687,,,,,,4014,4353,2007,0,
 1654530075398.45849609375,,,,,,4014,3928,2007,0,
 1654530075408.49877929687,-0.09118652343,0.52282714843,-0.88049316406,,,,,,,,
 1654530075517.38549804687,,,,90,100,,,,
 1654530075520.43725585937,,,,,,,,,,90
 1654530075523.6416015625,-0.09045410156,0.52111816406,-0.87854003906,,,,,,,,
 1654530075527.70043945312,,,,,,3998,2154,1999,0,
 1654530075559.92700195312,,,,,,3958,-225,1979,0,
 1654530075568.96020507812,-0.09008789062,0.51611328125,-0.87670898437,,,,,,,,
 1654530075600.0576171875,,,,,,3934,-1407,1967,0,
 1654530075640.06616210937,,,,,,3950,-2467,1975,0,
 1654530075648.48901367187,-0.08996582031,0.51586914062,-0.87255859375,,,,,,,,
 1654530075680.68505859375,,,,,,3934,-3352,1967,0,
 1654530075721.029296875,,,,,,3902,-4058,1951,0,
 1654530075728.841796875,-0.0888671875,0.51672363281,-0.86962890625,,,,,,,,
 1654530075760.9462890625,,,,,,3894,-4601,1947,0,
 1654530075801.26000976562,,,,,,3870,-5051,1935,0,
 1654530075809.07250976562,-0.11120605468,0.50988769531,-0.87878417968,,,,,,,,
 1654530075841.42114257812,,,,,,3838,-5464,1919,0,
 1654530075889.39477539062,-0.12268066406,0.51599121093,-0.90380859375,,,,,,,,
 1654530075922.04858398437,,,,,,3830,-5870,1915,0,
 1654530075962.17919921875,,,,,,3838,-6290,1919,0,
 1654530075969.86962890625,-0.1259765625,0.47924804687,-0.95092773437,,,,,,,,
 1654530076002.67602539062,,,,,,3838,-6745,1919,0,
 1654530076042.6845703125,,,,,,3838,-7212,1919,0,
 1654530076050.40551757812,-0.16918945312,0.396484375,-1.02404785156,,,,,,,,
 1654530076083.18139648437,,,,,,3822,-7661,1911,0,
 1654530076123.40356445312,,,,,,3822,-8007,1911,0,
 1654530076131.24658203125,-0.16540527343,0.38195800781,-1.04138183593,,,,,,,,
 1654530076163.5341796875,,,,,,3758,-8227,1879,0,
 1654530076203.8173828125,,,,,,3742,-8234,1871,0,
 1654530076211.53833007812,-0.12817382812,0.41052246093,-1.01306152343,,,,,,,,
 1654530076244.43627929687,,,,,,3678,-8060,1839,0,
 1654530076286.91674804687,,,,,,3646,-7636,1823,0,
 1654530076292.01318359375,-0.103515625,0.43530273437,-0.95703125,,,,,,,,
 1654530076324.7890625,,,,,,3614,-6995,1807,0,
 1654530076367.42211914062,,,,,,3582,-6220,1791,0,
 1654530076372.70166015625,-0.11804199218,0.44897460937,-0.83825683593,,,,,,,,
 1654530076405.14184570312,,,,,,3550,-5372,1775,0,
 1654530076493.03247070312,-0.12902832031,0.46887207031,-0.70361328125,,,,,,,,
 1654530076497.15234375,,,,,,3502,-4555,1751,0,
 1654530076529.28735351562,,,,,,3470,-3337,1735,0,
 1654530076552.35864257812,,,,90,100,,,,
 1654530076555.3798828125,,,,,,,,,,90
 1654530076609.85375976562,,,,,,3406,-3106,1703,0,
 1654530076647.51245117187,,,,,,3414,-3112,1707,0,
 1654530076652.48681640625,,,,61,0,,,,
 1654530076689.56567382812,,,,,,3422,-3339,1711,0,
 1654530076727.22436523437,,,,,,3422,-3713,1711,0,
 1654530076770.49829101562,-0.12243652343,0.484375,-0.93798828125,,,,,,,,
 1654530076774.52661132812,,,,,,3454,-4115,1727,0,
 1654530076808.03491210937,,,,,,3422,-4478,1711,0,
 1654530076851.06469726562,-0.02905273437,0.52819824218,-0.78344726562,,,,,,,,
 1654530076855.15405273437,,,,,,3438,-4655,1719,0,
 1654530076888.66235351562,,,,,,3422,-4600,1711,0,
 1654530076931.41748046875,-0.06665039062,0.43701171875,-0.75305175781,,,,,,,,
 1654530076935.65942382812,,,,,,3390,-4231,1695,0,
 1654530076969.076171875,,,,,,3382,-3540,1691,0,
 1654530077011.9228515625,-0.19360351562,0.36840820312,-0.86608886718,,,,,,,,
 1654530077016.34790039062,,,,,,3342,-2592,1671,0,
 1654530077049.642578125,,,,,,3326,-1446,1663,0,
 1654530077092.45874023437,-0.21740722656,0.40002441406,-0.97192382812,,,,,,,,
 1654530077096.57861328125,,,,,,3318,-243,1659,0,
 1654530077130.17846679687,,,,,,3294,905,1647,0,
 1654530077173.23876953125,-0.19201660156,0.45446777343,-0.978515625,,,,,,,,
 1654530077177.26708984375,,,,,,3286,1874,1643,0,
 1654530077210.83642578125,,,,,,3262,2520,1631,0,
 1654530077253.56103515625,-0.07189941406,0.4599609375,-0.84301757812,,,,,,,,
 1654530077257.80297851562,,,,,,3222,2807,1611,0,
 1654530077291.9521484375,,,,,,3198,2685,1599,0,
 1654530077296.95703125,,,,61,0,,,,
 1654530077335.50073242187,-0.02197265625,0.40417480468,-0.82043457031,,,,,,,,
 1654530077339.8037109375,,,,,,3182,2179,1591,0,
 1654530077371.69458007812,,,,,,3150,1372,1575,0,
 1654530077414.876953125,-0.08215332031,0.41467285156,-0.896484375,,,,,,,,
 1654530077418.93579101562,,,,,,3182,393,1591,0,
 1654530077492.42211914062,,,,,,3190,-658,1595,0,
 1654530077504.4765625,,,,,,3198,-1621,1599,0,
 1654530077533.07153320312,,,,,,3222,-2394,1611,0,
 1654530077568.10571289062,-0.08715820312,0.50634765625,-0.86572265625,,,,,,,,
 1654530077613.2412109375,,,,,,3230,-2892,1615,0,
 1654530077651.51025390625,,,,90,100,,,,
 1654530077654.68408203125,,,,,,,,,,90
 1654530077657.49169921875,-0.08959960937,0.52172851562,-0.85607910156,,,,,,,,
 1654530077693.96020507812,,,,,,3246,-3079,1623,0,
 1654530077728.29248046875,-0.08972167968,0.53198242187,-0.8515625,,,,,,,,
 1654530077774.251953125,,,,,,3222,-2958,1611,0,
 1654530077808.0654296875,-0.0908203125,0.53576660156,-0.85266113281,,,,,,,,
 1654530077854.818359375,,,,,,3230,-2556,1615,0,
 1654530077888.20458984375,-0.09240722656,0.54064941406,-0.85314941406,,,,,,,,
 1654530077935.32373046875,,,,,,3198,-1993,1599,0,
 1654530077975.51538085937,-0.09826660156,0.54077148437,-0.8564453125,,,,,,,,
 1654530077979.57421875,,,,,,3198,-1357,1599,0,
 1654530078015.85961914062,,,,,,3194,-768,1597,0,
 1654530078053.12158203125,-0.09899902343,0.53991699218,-0.86315917968,,,,,,,,
 1654530078060.11010742187,,,,,,3182,-344,1591,0,
 1654530078128.16430664062,-0.09716796875,0.54150390625,-0.8642578125,,,,,,,,
 1654530078139.91357421875,,,,,,3222,-125,1611,0,
 1654530078177.84692382812,,,,,,3246,-175,1623,0,
 1654530078183.00439453125,,,,59,0,,,,
 1654530078213.85766601562,,,,89,100,,,,
 1654530078217.06201171875,,,,,,,,,,89
 1654530078219.86962890625,-0.09851074218,0.53918457031,-0.85852050781,,,,,,,,
 1654530078226.91918945312,,,,,,3262,-543,1631,0,
 1654530078257.74194335937,,,,,,3262,-1159,1631,0,
 1654530078287.95434570312,-0.09802246093,0.53698730468,-0.85583496093,,,,,,,,
 1654530078300.10034179687,,,,,,3262,-1985,1631,0,
 1654530078338.18627929687,,,,,,3238,-2946,1619,0,
 1654530078368.1240234375,-0.095703125,0.5390625,-0.85766601562,,,,,,,,
 1654530078379.78173828125,,,,,,3230,-3951,1615,0,
 1654530078419.17993164062,,,,,,3198,-4948,1599,0,
 1654530078496.57250976562,-0.095703125,0.54223632812,-0.85961914062,,,,,,,,
 1654530078500.96704101562,,,,,,3178,-5864,1589,0,
 1654530078527.9140625,-0.09777832031,0.54150390625,-0.86254882812,,,,,,,,
 1654530078540.42626953125,,,,,,3134,-7337,1567,0,
 1654530078579.70239257812,,,,,,3126,-7878,1563,0,
 1654530078608.32788085937,-0.09875488281,0.53918457031,-0.86401367187,,,,,,,,
 1654530078620.53491210937,,,,,,3158,-8307,1579,0,
 1654530078660.17724609375,,,,,,3150,-8649,1575,0,
 1654530078688.10083007812,-0.10021972656,0.53698730468,-0.86254882812,,,,,,,,
 1654530078700.61303710937,,,,,,3134,-8937,1567,0,
 1654530078740.86572265625,,,,,,3134,-9171,1567,0,
 1654530078767.87377929687,-0.09887695312,0.53491210937,-0.86083984375,,,,,,,,
 1654530078781.17944335937,,,,,,3134,-9352,1567,0,
 1654530078821.46264648437,,,,,,3166,-9418,1583,0,
 1654530078848.16552734375,-0.09814453125,0.53503417968,-0.86315917968,,,,,,,,
 1654530078901.78491210937,,,,,,3214,-9317,1607,0,
 1654530078928.060546875,-0.09790039062,0.53295898437,-0.86218261718,,,,,,,,
 1654530078942.708984375,,,,,,3214,-9046,1607,0,
 1654530078982.32080078125,,,,,,3230,-8543,1615,0,
 1654530079007.83349609375,-0.0966796875,0.52893066406,-0.86267089843,,,,,,,,
 1654530079022.75659179687,,,,,,3230,-7790,1615,0,
 1654530079063.1923828125,,,,,,3230,-6774,1615,0,
 1654530079088.15576171875,-0.09509277343,0.52490234375,-0.86608886718,,,,,,,,
 1654530079103.38403320312,,,,,,3222,-5551,1611,0,
 1654530079143.60620117187,,,,,,3198,-4190,1599,0,
 1654530079168.20336914062,-0.09228515625,0.52307128906,-0.86877441406,,,,,,,,
 1654530079184.13354492187,,,,,,3182,-2754,1591,0,
 1654530079223.92846679687,,,,,,3166,-1349,1583,0,
 1654530079247.79321289062,-0.09094238281,0.52221679687,-0.86584472656,,,,,,,,
 1654530079264.39477539062,,,,,,3166,-95,1583,0,
 1654530079306.08178710937,,,,89,100,,,,
 1654530079309.1640625,,,,,,,,,,89
 1654530079312.18530273437,,,,,,3134,918,1567,0,
 1654530079329.09204101562,-0.09033203125,0.52600097656,-0.86340332031,,,,,,,,
 1654530079344.77807617187,,,,,,3102,1640,1551,0,
 1654530079385.61059570312,,,,,,3098,2030,1549,0,
 1654530079408.1630859375,-0.08801269531,0.52868652343,-0.87158203125,,,,,,,,
 1654530079425.55810546875,,,,,,3054,2080,1527,0,
 1654530079491.47607421875,,,,,,3054,1878,1527,0,
 1654530079496.419921875,,,,54,15,,,,
 1654530079512.2890625,,,,,,3070,1478,1535,0,
 1654530079546.31616210937,,,,,,3070,1013,1535,0,
 1654530079568.13623046875,-0.08581542968,0.52404785156,-0.86547851562,,,,,,,,
 1654530079586.56884765625,,,,,,3118,573,1559,0,
 1654530079647.93969726562,-0.0859375,0.52368164062,-0.86743164062,,,,,,,,
 1654530079667.13525390625,,,,,,3182,290,1591,0,
 1654530079707.17431640625,,,,,,3198,223,1599,0,
 1654530079727.95678710937,-0.08483886718,0.52038574218,-0.8662109375,,,,,,,,
 1654530079748.12890625,,,,,,3198,392,1599,0,
 1654530079787.6796875,,,,,,3238,819,1619,0,
 1654530079808.00439453125,-0.08642578125,0.51782226562,-0.86779785156,,,,,,,,
 1654530079828.39013671875,,,,,,3246,1418,1623,0,
 1654530079868.21557617187,,,,,,3254,2080,1627,0,
 1654530079888.05200195312,-0.08825683593,0.52075195312,-0.87170410156,,,,,,,,
 1654530079908.7734375,,,,,,3286,2690,1643,0,
 1654530079948.9345703125,,,,,,3262,3086,1631,0,
 1654530079967.91650390625,-0.09118652343,0.52429199218,-0.87133789062,,,,,,,,
 1654530079989.30932617187,,,,,,3294,3196,1647,0,
 1654530080029.31787109375,,,,,,3318,2911,1659,0,
 1654530080048.11669921875,-0.08935546875,0.52685546875,-0.87231445312,,,,,,,,
 1654530080070.08935546875,,,,,,3310,2166,1655,0,
 1654530080109.79272460937,,,,,,3326,1010,1663,0,
 1654530080128.01171875,-0.08435058593,0.52612304687,-0.88208007812,,,,,,,,
 1654530080150.56420898437,,,,,,3326,-494,1663,0,
 1654530080190.32861328125,,,,,,3350,-2213,1675,0,
 1654530080207.87622070312,-0.08410644531,0.52258300781,-0.88354492187,,,,,,,,
 1654530080230.9169921875,,,,,,3374,-4009,1687,0,
 1654530080271.04760742187,,,,,,3418,-5684,1709,0,
 1654530080288.07641601562,-0.08825683593,0.52307128906,-0.87683105468,,,,,,,,
 1654530080311.17822265625,,,,,,3446,-7093,1723,0,
 1654530080351.46142578125,,,,,,3478,-8079,1739,0,
 1654530080367.72729492187,-0.09008789062,0.52319335937,-0.86962890625,,,,,,,,
 1654530080407.24755859375,,,,88,100,,,,
 1654530080410.29931640625,,,,,,,,,,88
 1654530080413.47314453125,,,,,,3502,-8563,1751,0,
 1654530080432.2109375,,,,,,3498,-8529,1749,0,
 1654530080499.44116210937,-0.0888671875,0.51806640625,-0.86096191406,,,,,,,,
 1654530080508.81005859375,,,,,,3510,-8002,1755,0,
 1654530080528.09716796875,-0.09045410156,0.513671875,-0.85803222656,,,,,,,,
 1654530080553.1826171875,,,,,,3478,-5952,1739,0,
 1654530080593.40478515625,,,,,,3470,-4714,1735,0,
 1654530080607.96166992187,-0.09106445312,0.51672363281,-0.86706542968,,,,,,,,
 1654530080633.53540039062,,,,,,3454,-3570,1727,0,
 1654530080673.57446289062,,,,,,3446,-2646,1723,0,
 1654530080687.55151367187,-0.09252929687,0.51928710937,-0.87646484375,,,,,,,,
 1654530080714.28491210937,,,,,,3422,-2093,1711,0,
 1654530080754.04931640625,,,,,,3422,-1936,1711,0,
 1654530080768.0263671875,-0.09106445312,0.521484375,-0.87878417968,,,,,,,,
 1654530080795.52270507812,,,,,,3422,-2190,1711,0,
 1654530080800.43603515625,,,,50,24,,,,
 1654530080834.61572265625,,,,,,3438,-2795,1719,0,
 1654530080848.80639648437,-0.09045410156,0.52453613281,-0.87780761718,,,,,,,,
 1654530080874.89892578125,,,,,,3414,-3686,1707,0,
 1654530080915.21264648437,,,,,,3422,-4731,1711,0,
 1654530080927.572265625,-0.09423828125,0.52392578125,-0.8720703125,,,,,,,,
 1654530080955.67895507812,,,,,,3422,-5770,1711,0,
 1654530080995.65698242187,,,,,,3486,-6650,1743,0,
 1654530081007.83349609375,-0.10131835937,0.52575683593,-0.86840820312,,,,,,,,
 1654530081036.36743164062,,,,,,3502,-7282,1751,0,
 1654530081076.19287109375,,,,,,3518,-7593,1759,0,
 1654530081087.54541015625,-0.10241699218,0.52758789062,-0.8740234375,,,,,,,,
 1654530081116.56762695312,,,,,,3550,-7559,1775,0,
 1654530081156.8203125,,,,,,3550,-7177,1775,0,
 1654530081168.50854492187,-0.10192871093,0.525390625,-0.87353515625,,,,,,,,
 1654530081197.04248046875,,,,,,3550,-6521,1775,0,
 1654530081237.32568359375,,,,,,3550,-5678,1775,0,
 1654530081247.79321289062,-0.10278320312,0.52746582031,-0.86181640625,,,,,,,,
 1654530081277.85302734375,,,,,,3550,-4753,1775,0,
 1654530081317.80053710937,,,,,,3550,-3811,1775,0,
 1654530081327.53564453125,-0.10107421875,0.52941894531,-0.86047363281,,,,,,,,
 1654530081358.90771484375,,,,,,3550,-2931,1775,0,
 1654530081398.33642578125,,,,,,3534,-2179,1767,0,
 1654530081407.46118164062,-0.09924316406,0.53356933593,-0.86401367187,,,,,,,,
 1654530081490.13330078125,,,,,,3518,-1542,1759,0,
 1654530081523.97729492187,,,,,,,,,,88
 1654530081526.78491210937,-0.09838867187,0.53442382812,-0.86364746093,,,,,,,,
 1654530081531.087890625,,,,,,3542,-550,1771,0,
 1654530081559.62182617187,,,,,,3518,-137,1759,0,
 1654530081568.77709960937,-0.10009765625,0.52954101562,-0.86450195312,,,,,,,,
 1654530081599.96606445312,,,,,,3534,308,1767,0,
 1654530081639.91357421875,,,,,,3550,794,1775,0,
 1654530081647.84814453125,-0.09985351562,0.53039550781,-0.86279296875,,,,,,,,
 1654530081680.56298828125,,,,,,3582,1346,1791,0,
 1654530081720.4189453125,,,,,,3646,1971,1823,0,
 1654530081728.353515625,-0.099609375,0.53088378906,-0.86096191406,,,,,,,,
 1654530081760.88525390625,,,,,,3678,2588,1839,0,
 1654530081801.19897460937,,,,,,3694,3134,1847,0,
 1654530081809.13354492187,-0.1005859375,0.53210449218,-0.86743164062,,,,,,,,
 1654530081841.2685546875,,,,,,3742,3519,1871,0,
 1654530081881.5517578125,,,,,,3742,3686,1871,0,
 1654530081889.3642578125,-0.10107421875,0.53369140625,-0.87255859375,,,,,,,,
 1654530081922.93359375,,,,,,3770,3579,1885,0,
 1654530081928.3046875,,,,49,24,,,,
 1654530081962.17919921875,,,,,,3774,3134,1887,0,
 1654530081969.99169921875,-0.10131835937,0.52819824218,-0.87280273437,,,,,,,,
 1654530082042.5625,,,,,,3798,2380,1899,0,
 1654530082050.375,-0.10241699218,0.52880859375,-0.86975097656,,,,,,,,
 1654530082082.99829101562,,,,,,3806,1362,1903,0,
 1654530082126.05859375,,,,,,3818,188,1909,0,
 1654530082131.3076171875,-0.10095214843,0.53002929687,-0.86218261718,,,,,,,,
 1654530082163.86987304687,,,,,,3838,-1017,1919,0,
 1654530082206.47241210937,,,,,,3806,-2147,1903,0,
 1654530082211.53833007812,-0.09814453125,0.5234375,-0.86279296875,,,,,,,,
 1654530082244.43627929687,,,,,,3818,-3049,1909,0,
 1654530082286.8251953125,,,,,,3806,-3633,1903,0,
 1654530082324.544921875,,,,,,3822,-3812,1911,0,
 1654530082368.09350585937,,,,,,3870,-3543,1935,0,
 1654530082405.01977539062,,,,,,3902,-2887,1951,0,
 1654530082493.30712890625,-0.08972167968,0.50622558593,-0.86950683593,,,,,,,,
 1654530082497.42700195312,,,,,,3902,-1949,1951,0,
 1654530082528.92114257812,,,,,,3966,265,1983,0,
 1654530082566.70190429687,,,,,,3950,1174,1975,0,
 1654530082610.15893554687,,,,87,100,,,,
 1654530082613.36328125,,,,,,,,,,87
 1654530082616.1708984375,-0.0908203125,0.51257324218,-0.86901855468,,,,,,,,
 1654530082620.53491210937,,,,,,3982,1723,1991,0,
 1654530082646.87158203125,,,,,,3990,1799,1995,0,
 1654530082690.72534179687,-0.09240722656,0.51318359375,-0.86596679687,,,,,,,,
 1654530082694.99780273437,,,,,,3990,1346,1995,0,
 1654530082700.033203125,,,,49,24,,,,
 1654530082727.16333007812,,,,,,3966,328,1983,0,
 1654530082770.58984375,-0.09313964843,0.51440429687,-0.86657714843,,,,,,,,
 1654530082774.67919921875,,,,,,3966,-1149,1983,0,
 1654530082807.97387695312,,,,,,3966,-3019,1983,0,
 1654530082851.98022460937,-0.09753417968,0.51293945312,-0.87109375,,,,,,,,
 1654530082856.06958007812,,,,,,3966,-5073,1983,0,
 1654530082888.60131835937,,,,,,3966,-7108,1983,0,
 1654530082931.3564453125,-0.0986328125,0.51013183593,-0.8720703125,,,,,,,,
 1654530082935.53735351562,,,,,,3958,-8938,1979,0,
 1654530082969.47290039062,,,,,,3950,-10385,1975,0,
 1654530083012.044921875,-0.09289550781,0.50988769531,-0.87158203125,,,,,,,,
 1654530083016.46997070312,,,,,,3950,-11306,1975,0,
 1654530083049.45947265625,,,,,,3966,-11631,1983,0,
 1654530083092.64184570312,-0.09228515625,0.5087890625,-0.87231445312,,,,,,,,
 1654530083096.73120117187,,,,,,3998,-11334,1999,0,
 1654530083129.8427734375,,,,,,4030,-10493,2015,0,
 1654530083173.14721679687,-0.09204101562,0.51037597656,-0.87170410156,,,,,,,,
 1654530083177.2060546875,,,,,,4030,-9229,2015,0,
 1654530083210.775390625,,,,,,4054,-7672,2027,0,
 1654530083253.46948242187,-0.0908203125,0.51098632812,-0.87243652343,,,,,,,,
 1654530083257.74194335937,,,,,,4062,-6017,2031,0,
 1654530083291.12817382812,,,,,,4078,-4430,2039,0,
 1654530083334.1884765625,-0.09130859375,0.50830078125,-0.86547851562,,,,,,,,
 1654530083338.61352539062,,,,,,4078,-3049,2039,0,
 1654530083371.60302734375,,,,,,4078,-1994,2039,0,
 1654530083414.78540039062,-0.08947753906,0.51013183593,-0.86328125,,,,,,,,
 1654530083418.84423828125,,,,,,4078,-1301,2039,0,
 1654530083532.58325195312,,,,,,4022,-988,2011,0,
 1654530083567.220703125,-0.09387207031,0.51379394531,-0.87243652343,,,,,,,,
 1654530083613.05810546875,,,,,,3990,-981,1995,0,
 1654530083647.45141601562,-0.09387207031,0.50952148437,-0.87060546875,,,,,,,,
 1654530083706.380859375,,,,87,100,,,,
 1654530083709.37158203125,,,,,,,,,,87
 1654530083712.240234375,,,,,,3934,-1171,1967,0,
 1654530083717.51977539062,,,,47,33,,,,
 1654530083727.10229492187,-0.09692382812,0.50964355468,-0.86145019531,,,,,,,,
 1654530083775.01489257812,,,,,,3886,-1446,1943,0,
 1654530083807.18041992187,-0.10144042968,0.51281738281,-0.85510253906,,,,,,,,
 1654530083854.72680664062,,,,,,3862,-1619,1931,0,
 1654530083894.79638671875,-0.1025390625,0.51330566406,-0.86047363281,,,,,,,,
 1654530083898.8857421875,,,,,,3870,-1600,1935,0,
 1654530083935.44580078125,,,,,,3902,-1286,1951,0,
 1654530083972.1279296875,-0.10095214843,0.50817871093,-0.86303710937,,,,,,,,
 1654530083979.39111328125,,,,,,3902,-664,1951,0,
 1654530084052.23657226562,-0.09606933593,0.50378417968,-0.85900878906,,,,,,,,
 1654530084059.5302734375,,,,,,3902,240,1951,0,
 1654530084096.85327148437,,,,,,3902,1376,1951,0,
 1654530084127.18774414062,-0.09375,0.51220703125,-0.85498046875,,,,,,,,
 1654530084139.1201171875,,,,,,3886,2609,1943,0,
 1654530084177.083984375,,,,,,3886,3811,1943,0,
 1654530084207.02172851562,-0.09899902343,0.52233886718,-0.85729980468,,,,,,,,
 1654530084219.41186523437,,,,,,3838,4793,1919,0,
 1654530084253.40844726562,,,,86,100,,,,
 1654530084256.76538085937,,,,,,,,,,86
 1654530084262.96044921875,,,,,,3862,5442,1931,0,
 1654530084287.25244140625,-0.10766601562,0.52807617187,-0.8583984375,,,,,,,,
 1654530084337.82006835937,,,,,,3966,5724,1983,0,
 1654530084367.1474609375,-0.11059570312,0.52563476562,-0.86096191406,,,,,,,,
 1654530084379.20190429687,,,,,,4030,5509,2015,0,
 1654530084418.96630859375,,,,,,4094,4823,2047,0,
 1654530084496.0537109375,-0.11096191406,0.52136230468,-0.87573242187,,,,,,,,
 1654530084500.17358398437,,,,,,4142,3724,2071,0,
 1654530084527.27319335937,-0.11633300781,0.51623535156,-0.88159179687,,,,,,,,
 1654530084540.15161132812,,,,,,4202,782,2101,0,
 1654530084579.916015625,,,,,,4222,-746,2111,0,
 1654530084607.3818359375,-0.11047363281,0.50134277343,-0.87182617187,,,,,,,,
 1654530084619.74145507812,,,,,,4254,-2095,2127,0,
 1654530084659.994140625,,,,,,4302,-3108,2151,0,
 1654530084686.94116210937,-0.10473632812,0.49743652343,-0.8662109375,,,,,,,,
 1654530084700.3994140625,,,,,,4286,-3743,2143,0,
 1654530084740.86572265625,,,,,,4238,-3959,2119,0,
 1654530084768.1484375,-0.10717773437,0.50610351562,-0.859375,,,,,,,,
 1654530084780.9658203125,,,,,,4158,-3796,2079,0,
 1654530084821.27954101562,,,,,,4046,-3365,2023,0,
 1654530084847.21948242187,-0.10314941406,0.51940917968,-0.85205078125,,,,,,,,
 1654530084861.71533203125,,,,,,3950,-2768,1975,0,
 1654530084901.60180664062,,,,,,3862,-2167,1931,0,
 1654530084926.90087890625,-0.10021972656,0.52990722656,-0.85388183593,,,,,,,,
 1654530084942.0986328125,,,,,,3798,-1713,1899,0,
 1654530084982.259765625,,,,,,3758,-1521,1879,0,
 1654530085007.13159179687,-0.10400390625,0.52954101562,-0.85888671875,,,,,,,,
 1654530085022.6650390625,,,,,,3758,-1682,1879,0,
 1654530085087.02661132812,-0.10375976562,0.52624511718,-0.85913085937,,,,,,,,
 1654530085103.20092773437,,,,,,3806,-2218,1903,0,
 1654530085143.17895507812,,,,,,3798,-3116,1899,0,
 1654530085166.86059570312,-0.10571289062,0.52575683593,-0.86340332031,,,,,,,,
 1654530085183.95043945312,,,,,,3806,-4313,1903,0,
 1654530085223.68432617187,,,,,,3822,-5669,1911,0,
 1654530085247.09130859375,-0.10559082031,0.52551269531,-0.87170410156,,,,,,,,
 1654530085264.27270507812,,,,,,3838,-7016,1919,0,
 1654530085304.4033203125,,,,,,3838,-8208,1919,0,
 1654530085326.77270507812,-0.09814453125,0.52124023437,-0.87036132812,,,,,,,,
 1654530085358.44995117187,,,,84,100,,,,
 1654530085361.5322265625,,,,,,,,,,84
 1654530085364.76708984375,,,,,,3838,-9088,1919,0,
 1654530085406.8203125,-0.09887695312,0.52038574218,-0.86242675781,,,,,,,,
 1654530085425.40551757812,,,,,,3894,-9528,1947,0,
 1654530085491.07934570312,,,,,,3886,-9473,1943,0,
 1654530085508.9931640625,,,,,,3902,-8928,1951,0,
 1654530085546.04150390625,,,,,,3918,-7909,1959,0,
 1654530085567.0986328125,-0.09936523437,0.52124023437,-0.87084960937,,,,,,,,
 1654530085586.35522460937,,,,,,3902,-6558,1951,0,
 1654530085626.48583984375,,,,,,3886,-5019,1943,0,
 1654530085646.87158203125,-0.10046386718,0.52233886718,-0.88037109375,,,,,,,,
 1654530085666.830078125,,,,,,3870,-3431,1935,0,
 1654530085706.869140625,,,,,,3838,-1977,1919,0,
 1654530085727.1328125,-0.09899902343,0.52185058593,-0.88684082031,,,,,,,,
 1654530085747.54907226562,,,,,,3838,-768,1919,0,
 1654530085787.34399414062,,,,,,3822,83,1911,0,
 1654530085807.05834960937,-0.09716796875,0.52685546875,-0.88989257812,,,,,,,,
 1654530085828.05444335937,,,,,,3822,540,1911,0,
 1654530085867.8798828125,,,,,,3806,611,1903,0,
 1654530085886.73974609375,-0.1005859375,0.52502441406,-0.880859375,,,,,,,,
 1654530085909.41430664062,,,,,,3806,366,1903,0,
 1654530085914.7548828125,,,,46,33,,,,
 1654530085948.75146484375,,,,,,3790,-110,1895,0,
 1654530085967.09252929687,-0.10107421875,0.52001953125,-0.86730957031,,,,,,,,
 1654530085988.8515625,,,,,,3774,-688,1887,0,
 1654530086029.0126953125,,,,,,3790,-1230,1895,0,
 1654530086047.04858398437,-0.09814453125,0.52075195312,-0.86511230468,,,,,,,,
 1654530086069.72314453125,,,,,,3774,-1634,1887,0,
 1654530086109.48754882812,,,,,,3798,-1777,1899,0,
 1654530086126.69946289062,-0.0947265625,0.52429199218,-0.86511230468,,,,,,,,
 1654530086150.04541015625,,,,,,3870,-1594,1935,0,
 1654530086190.45068359375,,,,,,3902,-1129,1951,0,
 1654530086207.05224609375,-0.09729003906,0.52478027343,-0.8662109375,,,,,,,,
 1654530086230.33715820312,,,,,,3950,-398,1975,0,
 1654530086270.62036132812,,,,,,3966,525,1983,0,
 1654530086287.00830078125,-0.09948730468,0.52404785156,-0.86364746093,,,,,,,,
 1654530086311.1171875,,,,,,3990,1527,1995,0,
 1654530086351.09521484375,,,,,,4022,2496,2011,0,
 1654530086367.6357421875,-0.09643554687,0.52575683593,-0.86450195312,,,,,,,,
 1654530086391.8056640625,,,,,,4030,3279,2015,0,
 1654530086431.75317382812,,,,,,4030,3768,2015,0,
 1654530086516.28686523437,,,,84,100,,,,
 1654530086519.61328125,,,,,,,,,,84
 1654530086524.984375,-0.09814453125,0.52868652343,-0.87109375,,,,,,,,
 1654530086529.31787109375,,,,,,4030,3923,2015,0,
 1654530086542.07421875,,,,,,4030,3705,2015,0,
 1654530086554.95263671875,,,,,,4030,3126,2015,0,
 1654530086592.82495117187,,,,,,4010,2229,2005,0,
 1654530086606.80200195312,-0.09826660156,0.51928710937,-0.87829589843,,,,,,,,
 1654530086633.3828125,,,,,,3998,1119,1999,0,
 1654530086673.36083984375,,,,,,3998,-87,1999,0,
 1654530086686.81909179687,-0.09997558593,0.521484375,-0.87548828125,,,,,,,,
 1654530086714.10180664062,,,,,,3966,-1297,1983,0,
 1654530086753.744140625,,,,,,3950,-2377,1975,0,
 1654530086766.927734375,-0.09973144531,0.52770996093,-0.8720703125,,,,,,,,
 1654530086794.11889648437,,,,,,3934,-3246,1967,0,
 1654530086834.46313476562,,,,,,3894,-3850,1947,0,
 1654530086846.57861328125,-0.09753417968,0.53063964843,-0.87255859375,,,,,,,,
 1654530086874.7158203125,,,,,,3918,-4118,1959,0,
 1654530086914.876953125,,,,,,3950,-4080,1975,0,
 1654530086927.78588867187,-0.09448242187,0.5361328125,-0.86767578125,,,,,,,,
 1654530086995.8095703125,,,,,,3950,-3769,1975,0,
 1654530087006.94848632812,-0.09509277343,0.53662109375,-0.8642578125,,,,,,,,
 1654530087035.87915039062,,,,,,3950,-3243,1975,0,
 1654530087075.8876953125,,,,,,3966,-2595,1983,0,
 1654530087086.53833007812,-0.09533691406,0.52954101562,-0.86376953125,,,,,,,,
 1654530087116.29296875,,,,,,3950,-1915,1975,0,
 1654530087156.63720703125,,,,,,3934,-1322,1967,0,
 1654530087166.76904296875,-0.09765625,0.52624511718,-0.85827636718,,,,,,,,
 1654530087196.859375,,,,,,3934,-913,1967,0,
 1654530087237.0205078125,,,,,,3902,-749,1951,0,
 1654530087246.7861328125,-0.09765625,0.52893066406,-0.86303710937,,,,,,,,
 1654530087278.37182617187,,,,,,3902,-857,1951,0,
 1654530087283.92602539062,,,,48,33,,,,
 1654530087317.61743164062,,,,,,3886,-1317,1943,0,
 1654530087326.498046875,-0.09765625,0.5322265625,-0.87573242187,,,,,,,,
 1654530087358.02270507812,,,,,,3886,-2112,1943,0,
 1654530087398.00073242187,,,,,,3862,-3225,1931,0,
 1654530087406.72875976562,-0.0986328125,0.53161621093,-0.87634277343,,,,,,,,
 1654530087489.828125,,,,,,3838,-4626,1919,0,
 1654530087502.49291992187,,,,,,3838,-6214,1919,0,
 1654530087519.06396484375,,,,,,3806,-7939,1903,0,
 1654530087548.666015625,,,,82,100,,,,
 1654530087556.93627929687,,,,,,,,,,82
 1654530087565.96948242187,,,,,,3790,-9668,1895,0,
 1654530087571.4931640625,-0.10559082031,0.53088378906,-0.86608886718,,,,,,,,
 1654530087599.90502929687,,,,,,3774,-11287,1887,0,
 1654530087639.57788085937,,,,,,3798,-12638,1899,0,
 1654530087647.63452148437,-0.10656738281,0.53527832031,-0.8603515625,,,,,,,,
 1654530087679.95263671875,,,,,,3830,-13586,1915,0,
 1654530087720.08325195312,,,,,,3862,-14004,1931,0,
 1654530087728.13989257812,-0.10595703125,0.54138183593,-0.84521484375,,,,,,,,
 1654530087760.39697265625,,,,,,3886,-13793,1943,0,
 1654530087801.26000976562,,,,,,3918,-12892,1959,0,
 1654530087809.31665039062,-0.07653808593,0.54016113281,-0.83715820312,,,,,,,,
 1654530087881.12451171875,,,,,,3958,-11242,1979,0,
 1654530087890.0966796875,-0.15454101562,0.54162597656,-0.96569824218,,,,,,,,
 1654530087921.89599609375,,,,,,3966,-8906,1983,0,
 1654530087961.66040039062,,,,,,3966,-5950,1983,0,
 1654530087969.564453125,-0.27734375,0.60388183593,-1.11840820312,,,,,,,,
 1654530088002.1572265625,,,,,,3998,-2483,1999,0,
 1654530088044.94287109375,,,,,,3990,1268,1995,0,
 1654530088050.40551757812,-0.22106933593,0.65466308593,-1.09790039062,,,,,,,,
 1654530088082.41845703125,,,,,,3998,5103,1999,0,
 1654530088125.53979492187,,,,,,3998,8749,1999,0,
 1654530088130.75830078125,-0.09375,0.64611816406,-0.94555664062,,,,,,,,
 1654530088206.04516601562,,,,,,4022,11967,2011,0,
 1654530088243.67333984375,,,,,,4014,14504,2007,0,
 1654530088286.36743164062,,,,,,4014,16152,2007,0,
 1654530088324.056640625,,,,,,4014,16789,2007,0,
 1654530088367.72729492187,,,,,,4022,16359,2011,0,
 1654530088373.15942382812,,,,50,33,,,,
 1654530088404.68408203125,,,,,,4078,14894,2039,0,
 1654530088493.82592773437,-0.14099121093,0.5185546875,-0.91467285156,,,,,,,,
 1654530088497.94580078125,,,,,,4094,12470,2047,0,
 1654530088565.66430664062,,,,,,4214,5710,2107,0,
 1654530088609.15185546875,-0.22045898437,0.34582519531,-1.02111816406,,,,,,,,
 1654530088613.39379882812,,,,,,4222,1877,2111,0,
 1654530088658.19360351562,,,,82,100,,,,
 1654530088661.21484375,,,,,,,,,,82
 1654530088664.5107421875,,,,,,4222,-1907,2111,0,
 1654530088689.56567382812,-0.22058105468,0.33532714843,-0.98059082031,,,,,,,,
 1654530088693.89916992187,,,,,,4222,-5342,2111,0,
 1654530088726.79711914062,,,,,,4222,-8193,2111,0,
 1654530088769.91845703125,-0.22375488281,0.35961914062,-1.0107421875,,,,,,,,
 1654530088774.0078125,,,,,,4206,-10311,2103,0,
 1654530088807.69921875,,,,,,4206,-11582,2103,0,
 1654530088850.24072265625,-0.15124511718,0.45324707031,-0.95190429687,,,,,,,,
 1654530088854.48266601562,,,,,,4206,-11996,2103,0,
 1654530088887.8994140625,,,,,,4190,-11624,2095,0,
 1654530088931.75317382812,-0.07885742187,0.453125,-0.87438964843,,,,,,,,
 1654530088935.873046875,,,,,,4190,-10599,2095,0,
 1654530088968.34375,,,,,,4182,-9116,2091,0,
 1654530089011.46508789062,-0.1201171875,0.43542480468,-0.90393066406,,,,,,,,
 1654530089015.55444335937,,,,,,4182,-7383,2091,0,
 1654530089049.12377929687,,,,,,4158,-5635,2079,0,
 1654530089092.03149414062,-0.1279296875,0.44177246093,-0.95104980468,,,,,,,,
 1654530089096.09033203125,,,,,,4134,-4057,2067,0,
 1654530089129.78173828125,,,,,,4094,-2842,2047,0,
 1654530089172.41479492187,-0.13891601562,0.37280273437,-0.99487304687,,,,,,,,
 1654530089176.68725585937,,,,,,4094,-2094,2047,0,
 1654530089199.72802734375,,,,82,100,,,,
 1654530089208.02880859375,,,,,,,,,,82
 1654530089214.3154296875,,,,,,4150,-1831,2075,0,
 1654530089254.17138671875,-0.12109375,0.42395019531,-0.96423339843,,,,,,,,
 1654530089258.35229492187,,,,,,4190,-2087,2095,0,
 1654530089263.8759765625,,,,50,33,,,,
 1654530089290.51782226562,,,,,,4222,-2781,2111,0,
 1654530089326.28442382812,-0.07934570312,0.50622558593,-0.9072265625,,,,,,,,
 1654530089370.90112304687,,,,,,4286,-3801,2143,0,
 1654530089406.33203125,-0.09118652343,0.51330566406,-0.88061523437,,,,,,,,
 1654530089490.59106445312,,,,,,4318,-5065,2159,0,
 1654530089532.09497070312,,,,,,4334,-6412,2167,0,
 1654530089566.244140625,-0.10083007812,0.5185546875,-0.87121582031,,,,,,,,
 1654530089612.5087890625,,,,,,4350,-7674,2175,0,
 1654530089646.29174804687,-0.10217285156,0.51379394531,-0.87634277343,,,,,,,,
 1654530089693.04467773437,,,,,,4350,-8745,2175,0,
 1654530089726.06469726562,-0.10290527343,0.51062011718,-0.87976074218,,,,,,,,
 1654530089773.763671875,,,,,,4318,-9510,2159,0,
 1654530089813.83325195312,,,,,,4310,-9896,2155,0,
 1654530089854.14697265625,,,,,,4310,-9838,2155,0,
 1654530089891.13427734375,-0.09777832031,0.52416992187,-0.873046875,,,,,,,,
 1654530089898.48901367187,,,,,,4302,-9362,2151,0,
 1654530089934.7744140625,,,,,,4286,-8471,2143,0,
 1654530089974.96606445312,,,,,,4270,-7225,2135,0,
 1654530090046.16357421875,-0.09912109375,0.52941894531,-0.85986328125,,,,,,,,
 1654530090058.7978515625,,,,,,4214,-5718,2107,0,
 1654530090096.33447265625,,,,,,4222,-3982,2111,0,
 1654530090136.00732421875,,,,,,4222,-2154,2111,0,
 1654530090176.29052734375,,,,,,4222,-314,2111,0,
 1654530090205.95361328125,-0.10046386718,0.53564453125,-0.86413574218,,,,,,,,
 1654530090218.64892578125,,,,,,4222,1424,2111,0,
 1654530090256.97900390625,,,,,,4222,2966,2111,0,
 1654530090307.3330078125,,,,80,100,,,,
 1654530090310.35424804687,,,,,,,,,,80
 1654530090313.25341796875,,,,,,4206,4240,2103,0,
 1654530090337.78955078125,,,,,,4206,5198,2103,0,
 1654530090366.29296875,-0.10131835937,0.54345703125,-0.86889648437,,,,,,,,
 1654530090378.56103515625,,,,,,4190,5772,2095,0,
 1654530090418.56958007812,,,,,,4158,5935,2079,0,
 1654530090486.166015625,-0.11706542968,0.52758789062,-0.87939453125,,,,,,,,
 1654530090504.87329101562,,,,52,36,,,,
 1654530090526.3271484375,-0.12231445312,0.51696777343,-0.87915039062,,,,,,,,
 1654530090539.17504882812,,,,,,4094,5192,2047,0,
 1654530090579.33618164062,,,,,,4030,4356,2015,0,
 1654530090606.10009765625,-0.10913085937,0.5224609375,-0.87268066406,,,,,,,,
 1654530090619.466796875,,,,,,4014,3340,2007,0,
 1654530090659.8720703125,,,,,,3998,2259,1999,0,
 1654530090685.873046875,-0.09985351562,0.52709960937,-0.87182617187,,,,,,,,
 1654530090699.97216796875,,,,,,3990,1200,1995,0,
 1654530090740.40795898437,,,,,,3950,266,1975,0,
 1654530090766.16479492187,-0.09655761718,0.5283203125,-0.86828613281,,,,,,,,
 1654530090820.60815429687,,,,,,3902,-468,1951,0,
 1654530090846.21240234375,-0.09509277343,0.52880859375,-0.86254882812,,,,,,,,
 1654530090861.10498046875,,,,,,3838,-943,1919,0,
 1654530090901.17456054687,,,,,,3822,-1120,1911,0,
 1654530090925.83276367187,-0.09741210937,0.5322265625,-0.86706542968,,,,,,,,
 1654530090941.64086914062,,,,,,3822,-1009,1911,0,
 1654530090982.04614257812,,,,,,3806,-687,1903,0,
 1654530091006.12451171875,-0.1005859375,0.53479003906,-0.87133789062,,,,,,,,
 1654530091022.69555664062,,,,,,3790,-237,1895,0,
 1654530091062.30737304687,,,,,,3806,227,1903,0,
 1654530091087.14868164062,-0.10424804687,0.53283691406,-0.86486816406,,,,,,,,
 1654530091103.07885742187,,,,,,3830,592,1915,0,
 1654530091142.7822265625,,,,,,3822,733,1911,0,
 1654530091165.79248046875,-0.10803222656,0.53405761718,-0.85778808593,,,,,,,,
 1654530091183.49267578125,,,,,,3806,548,1903,0,
 1654530091223.3486328125,,,,,,3798,-27,1899,0,
 1654530091246.11474609375,-0.10461425781,0.53674316406,-0.8544921875,,,,,,,,
 1654530091263.8759765625,,,,,,3806,-986,1903,0,
 1654530091304.09814453125,,,,,,3798,-2313,1899,0,
 1654530091326.1318359375,-0.09875488281,0.53894042968,-0.84875488281,,,,,,,,
 1654530091344.4423828125,,,,,,3806,-3901,1903,0,
 1654530091404.34838867187,,,,80,100,,,,
 1654530091407.46118164062,,,,,,,,,,80
 1654530091410.54345703125,,,,,,3798,-5642,1899,0,
 1654530091421.13305664062,-0.09814453125,0.54418945312,-0.85021972656,,,,,,,,
 1654530091428.79296875,,,,,,3790,-7354,1895,0,
 1654530091494.37524414062,,,,,,3806,-8886,1903,0,
 1654530091511.95336914062,,,,,,3798,-10097,1899,0,
 1654530091545.94995117187,,,,,,3790,-10850,1895,0,
 1654530091566,-0.10131835937,0.54016113281,-0.86291503906,,,,,,,,
 1654530091586.20263671875,,,,,,3806,-11059,1903,0,
 1654530091626.24169921875,,,,,,3798,-10728,1899,0,
 1654530091646.04760742187,-0.10559082031,0.53540039062,-0.85681152343,,,,,,,,
 1654530091666.5859375,,,,,,3806,-9898,1903,0,
 1654530091706.65551757812,,,,,,3806,-8644,1903,0,
 1654530091726.18676757812,-0.10974121093,0.53515625,-0.85192871093,,,,,,,,
 1654530091747.36596679687,,,,,,3798,-7097,1899,0,
 1654530091787.16088867187,,,,,,3830,-5419,1915,0,
 1654530091805.74609375,-0.11157226562,0.54138183593,-0.85070800781,,,,,,,,
 1654530091828.20703125,,,,,,3882,-3748,1941,0,
 1654530091885.67163085937,-0.10827636718,0.5390625,-0.8583984375,,,,,,,,
 1654530091908.01049804687,,,,,,3950,-2261,1975,0,
 1654530091948.29370117187,,,,,,3990,-1047,1995,0,
 1654530091966.146484375,-0.10266113281,0.53173828125,-0.865234375,,,,,,,,
 1654530091988.82104492187,,,,,,4014,-205,2007,0,
 1654530092028.7685546875,,,,,,4014,214,2007,0,
 1654530092045.70581054687,-0.09997558593,0.53356933593,-0.865234375,,,,,,,,
 1654530092069.69262695312,,,,,,4030,283,2015,0,
 1654530092110.03686523437,,,,,,4046,83,2023,0,
 1654530092115.46899414062,,,,48,56,,,,
 1654530092126.05859375,-0.10180664062,0.53442382812,-0.85888671875,,,,,,,,
 1654530092149.80126953125,,,,,,4062,-261,2031,0,
 1654530092190.20654296875,,,,,,4078,-631,2039,0,
 1654530092206.10620117187,-0.10375976562,0.52954101562,-0.86120605468,,,,,,,,
 1654530092230.1845703125,,,,,,4094,-901,2047,0,
 1654530092270.4677734375,,,,,,4078,-985,2039,0,
 1654530092285.66552734375,-0.1025390625,0.52734375,-0.86962890625,,,,,,,,
 1654530092350.94262695312,,,,,,4086,-803,2043,0,
 1654530092365.9267578125,-0.09997558593,0.52416992187,-0.86938476562,,,,,,,,
 1654530092391.71411132812,,,,,,4094,-372,2047,0,
 1654530092431.50903320312,,,,,,4062,251,2031,0,
 1654530092499.38012695312,-0.09875488281,0.517578125,-0.87133789062,,,,,,,,
 1654530092508.65747070312,,,,,,4078,1004,2039,0,
 1654530092542.13525390625,,,,,,,,,,78
 1654530092550.28344726562,-0.09912109375,0.51440429687,-0.87121582031,,,,,,,,
 1654530092554.4033203125,,,,,,4078,1755,2039,0,
 1654530092562.76513671875,,,,,,4054,2378,2027,0,
 1654530092592.67236328125,,,,,,4054,2743,2027,0,
 1654530092606.00854492187,-0.10046386718,0.52233886718,-0.87121582031,,,,,,,,
 1654530092633.56591796875,,,,,,4022,2702,2011,0,
 1654530092673.39135742187,,,,,,4062,2240,2031,0,
 1654530092686.08666992187,-0.10302734375,0.52807617187,-0.86804199218,,,,,,,,
 1654530092713.67456054687,,,,,,4094,1316,2047,0,
 1654530092753.65258789062,,,,,,4142,-12,2071,0,
 1654530092765.5849609375,-0.10437011718,0.521484375,-0.861328125,,,,,,,,
 1654530092793.96630859375,,,,,,4174,-1693,2087,0,
 1654530092834.40209960937,,,,,,4206,-3538,2103,0,
 1654530092846.54809570312,-0.10485839843,0.51208496093,-0.86437988281,,,,,,,,
 1654530092874.65478515625,,,,,,4222,-5388,2111,0,
 1654530092914.78540039062,,,,,,4246,-7065,2123,0,
 1654530092925.83276367187,-0.10620117187,0.509765625,-0.86694335937,,,,,,,,
 1654530092955.49584960937,,,,,,4246,-8423,2123,0,
 1654530092995.26025390625,,,,,,4246,-9335,2123,0,
 1654530093005.54467773437,-0.10168457031,0.5107421875,-0.87121582031,,,,,,,,
 1654530093035.57397460937,,,,,,4270,-9693,2135,0,
 1654530093075.82666015625,,,,,,4270,-9518,2135,0,
 1654530093085.59228515625,-0.1005859375,0.51025390625,-0.87951660156,,,,,,,,
 1654530093116.14038085937,,,,,,4254,-8817,2127,0,
 1654530093156.576171875,,,,,,4222,-7691,2111,0,
 1654530093165.79248046875,-0.109375,0.51208496093,-0.87390136718,,,,,,,,
 1654530093197.07299804687,,,,,,4206,-6279,2103,0,
 1654530093236.95947265625,,,,,,4174,-4717,2087,0,
 1654530093245.53491210937,-0.11450195312,0.51708984375,-0.86608886718,,,,,,,,
 1654530093277.70043945312,,,,,,4174,-3146,2087,0,
 1654530093317.46484375,,,,,,4094,-1758,2047,0,
 1654530093325.55200195312,-0.11181640625,0.51831054687,-0.86560058593,,,,,,,,
 1654530093357.96166992187,,,,,,4094,-621,2047,0,
 1654530093398.1533203125,,,,,,4062,156,2031,0,
 1654530093407.24755859375,-0.10632324218,0.51586914062,-0.86645507812,,,,,,,,
 1654530093490.25537109375,,,,,,4054,568,2027,0,
 1654530093503.43896484375,,,,,,4022,634,2011,0,
 1654530093519.79638671875,,,,,,3990,420,1995,0,
 1654530093525.28955078125,,,,49,68,,,,
 1654530093559.408203125,,,,,,3950,22,1975,0,
 1654530093567.52587890625,-0.1123046875,0.5126953125,-0.8603515625,,,,,,,,
 1654530093607.259765625,,,,78,100,,,,
 1654530093610.46411132812,,,,,,,,,,78
 1654530093613.33276367187,,,,,,3934,-431,1967,0,
 1654530093639.82202148437,,,,,,3926,-811,1963,0,
 1654530093648.00073242187,-0.11181640625,0.51940917968,-0.86499023437,,,,,,,,
 1654530093680.1357421875,,,,,,3902,-1053,1951,0,
 1654530093720.35791015625,,,,,,3918,-1051,1959,0,
 1654530093728.50610351562,-0.11145019531,0.52258300781,-0.86511230468,,,,,,,,
 1654530093760.48852539062,,,,,,3934,-785,1967,0,
 1654530093800.80224609375,,,,,,3934,-285,1967,0,
 1654530093809.10302734375,-0.11242675781,0.52294921875,-0.85583496093,,,,,,,,
 1654530093841.390625,,,,,,3966,435,1983,0,
 1654530093884.05419921875,,,,,,3950,1255,1975,0,
 1654530093889.30322265625,-0.10766601562,0.52429199218,-0.85034179687,,,,,,,,
 1654530093922.14013671875,,,,,,3934,2084,1967,0,
 1654530093965.20043945312,,,,,,3918,2828,1959,0,
 1654530093970.81567382812,-0.10852050781,0.52478027343,-0.85620117187,,,,,,,,
 1654530094002.279296875,,,,,,3902,3356,1951,0,
 1654530094045.1259765625,,,,,,3902,3618,1951,0,
 1654530094082.63208007812,,,,,,3870,3518,1935,0,
 1654530094125.75341796875,,,,,,3862,3057,1931,0,
 1654530094206.13671875,,,,,,3870,2256,1935,0,
 1654530094244.3447265625,,,,,,3866,1157,1933,0,
 1654530094286.55053710937,,,,,,3870,-130,1935,0,
 1654530094324.30078125,,,,,,3870,-1507,1935,0,
 1654530094367.30004882812,,,,,,3886,-2868,1943,0,
 1654530094404.80615234375,,,,,,3894,-4089,1947,0,
 1654530094495.10766601562,-0.10180664062,0.53198242187,-0.85852050781,,,,,,,,
 1654530094499.56323242187,,,,,,3902,-5093,1951,0,
 1654530094528.7685546875,-0.1005859375,0.53881835937,-0.87048339843,,,,,,,,
 1654530094533.19360351562,,,,,,3934,-6208,1967,0,
 1654530094566.30517578125,,,,,,3958,-6279,1979,0,
 1654530094608.93823242187,-0.10729980468,0.53796386718,-0.87707519531,,,,,,,,
 1654530094613.2412109375,,,,,,3998,-6077,1999,0,
 1654530094646.56640625,,,,,,4054,-5633,2027,0,
 1654530094706.83862304687,,,,75,100,,,,
 1654530094710.1650390625,,,,,,,,,,75
 1654530094712.94213867187,-0.1083984375,0.53430175781,-0.87390136718,,,,,,,,
 1654530094722.494140625,,,,,,4094,-5047,2047,0,
 1654530094730.85595703125,,,,,,4142,-4401,2071,0,
 1654530094770.7119140625,-0.10266113281,0.53271484375,-0.87231445312,,,,,,,,
 1654530094774.80126953125,,,,,,4182,-3772,2091,0,
 1654530094808.09594726562,,,,,,4206,-3235,2103,0,
 1654530094850.63745117187,-0.10205078125,0.52673339843,-0.87170410156,,,,,,,,
 1654530094854.84887695312,,,,,,4222,-2878,2111,0,
 1654530094888.265625,,,,,,4238,-2720,2119,0,
 1654530094925.22241210937,-0.10278320312,0.52392578125,-0.86608886718,,,,,,,,
 1654530094968.55737304687,,,,,,4254,-2801,2127,0,
 1654530095011.83129882812,-0.10009765625,0.5205078125,-0.86047363281,,,,,,,,
 1654530095015.951171875,,,,,,4254,-3099,2127,0,
 1654530095049.82568359375,,,,,,4254,-3590,2127,0,
 1654530095092.42822265625,-0.09985351562,0.51892089843,-0.85363769531,,,,,,,,
 1654530095096.48706054687,,,,,,4254,-4212,2127,0,
 1654530095130.27001953125,,,,,,4254,-4903,2127,0,
 1654530095172.78100585937,-0.10388183593,0.51501464843,-0.85668945312,,,,,,,,
 1654530095177.02294921875,,,,,,4270,-5594,2135,0,
 1654530095210.43969726562,,,,,,4246,-6215,2123,0,
 1654530095251.63842773437,,,,75,100,,,,
 1654530095254.720703125,,,,,,,,,,75
 1654530095257.80297851562,-0.10681152343,0.51428222656,-0.85815429687,,,,,,,,
 1654530095290.76196289062,,,,,,4246,-6676,2123,0,
 1654530095325.30786132812,-0.10290527343,0.52014160156,-0.85778808593,,,,,,,,
 1654530095371.26733398437,,,,,,4222,-6940,2111,0,
 1654530095405.17236328125,-0.10424804687,0.52392578125,-0.8701171875,,,,,,,,
 1654530095491.07934570312,,,,,,4190,-6978,2095,0,
 1654530095532.46118164062,,,,,,4206,-6738,2103,0,
 1654530095565.267578125,-0.11108398437,0.52392578125,-0.87072753906,,,,,,,,
 1654530095612.875,,,,,,4310,-6192,2155,0,
 1654530095653.18872070312,-0.1123046875,0.52160644531,-0.86572265625,,,,,,,,
 1654530095657.40014648437,,,,,,4334,-5399,2167,0,
 1654530095693.41088867187,,,,,,4382,-4379,2191,0,
 1654530095730.27612304687,-0.11694335937,0.521484375,-0.8623046875,,,,,,,,
 1654530095738.05810546875,,,,,,4398,-3224,2199,0,
 1654530095774.3740234375,,,,,,4414,-1983,2207,0,
 1654530095810.17114257812,-0.11401367187,0.51623535156,-0.86181640625,,,,,,,,
 1654530095817.8310546875,,,,,,4446,-741,2223,0,
 1654530095855.27612304687,,,,,,4446,358,2223,0,
 1654530095885.06127929687,-0.11047363281,0.51281738281,-0.86462402343,,,,,,,,
 1654530095898.00073242187,,,,,,4446,1264,2223,0,
 1654530095935.20166015625,,,,,,4446,1889,2223,0,
 1654530095965.13940429687,-0.10668945312,0.51635742187,-0.86499023437,,,,,,,,
 1654530095978.109375,,,,,,4446,2196,2223,0,
 1654530096016.86669921875,,,,,,4446,2126,2223,0,
 1654530096022.4208984375,,,,49,68,,,,
 1654530096045.33959960937,-0.10815429687,0.51904296875,-0.87036132812,,,,,,,,
 1654530096058.09594726562,,,,,,4462,1709,2231,0,
 1654530096096.76171875,,,,,,4438,938,2219,0,
 1654530096125.02099609375,-0.10974121093,0.51721191406,-0.87390136718,,,,,,,,
 1654530096137.92993164062,,,,,,4406,-95,2203,0,
 1654530096176.87036132812,,,,,,4382,-1295,2191,0,
 1654530096206.22827148437,-0.10534667968,0.51843261718,-0.87231445312,,,,,,,,
 1654530096219.22875976562,,,,,,4366,-2580,2183,0,
 1654530096257.49780273437,,,,,,4334,-3821,2167,0,
 1654530096285.14672851562,-0.10437011718,0.52099609375,-0.87487792968,,,,,,,,
 1654530096297.93359375,,,,,,4334,-4914,2167,0,
 1654530096355.1845703125,,,,72,100,,,,
 1654530096358.26684570312,,,,,,,,,,72
 1654530096363.94311523437,,,,,,4286,-5763,2143,0,
 1654530096378.10327148437,-0.10705566406,0.52124023437,-0.87182617187,,,,,,,,
 1654530096382.55883789062,,,,,,4246,-6252,2123,0,
 1654530096418.44750976562,,,,,,4222,-6335,2111,0,
 1654530096495.38232421875,-0.10412597656,0.52453613281,-0.87353515625,,,,,,,,
 1654530096499.50219726562,,,,,,4222,-5981,2111,0,
 1654530096525.3505859375,-0.10375976562,0.53015136718,-0.87536621093,,,,,,,,
 1654530096539.84643554687,,,,,,4286,-4035,2143,0,
 1654530096579.5498046875,,,,,,4318,-2573,2159,0,
 1654530096605.9169921875,-0.11096191406,0.52966308593,-0.86474609375,,,,,,,,
 1654530096619.80249023437,,,,,,4350,-926,2175,0,
 1654530096660.66552734375,,,,,,4382,800,2191,0,
 1654530096685.17114257812,-0.11108398437,0.52429199218,-0.85668945312,,,,,,,,
 1654530096700.521484375,,,,,,4398,2467,2199,0,
 1654530096740.46899414062,,,,,,4398,3951,2199,0,
 1654530096765.21875,-0.10913085937,0.52380371093,-0.86437988281,,,,,,,,
 1654530096781.2099609375,,,,,,4382,5126,2191,0,
 1654530096820.8828125,,,,,,4382,5918,2191,0,
 1654530096844.90014648437,-0.10925292968,0.52258300781,-0.86999511718,,,,,,,,
 1654530096861.41015625,,,,,,4350,6267,2175,0,
 1654530096924.97827148437,-0.1103515625,0.529296875,-0.86853027343,,,,,,,,
 1654530096942.708984375,,,,,,4334,6158,2167,0,
 1654530096948.080078125,,,,52,69,,,,
 1654530096982.32080078125,,,,,,4310,5615,2155,0,
 1654530097005.17846679687,-0.11608886718,0.53759765625,-0.87097167968,,,,,,,,
 1654530097022.45141601562,,,,,,4270,4629,2135,0,
 1654530097062.52099609375,,,,,,4270,3317,2135,0,
 1654530097084.85986328125,-0.11560058593,0.53527832031,-0.86474609375,,,,,,,,
 1654530097103.32299804687,,,,,,4222,1748,2111,0,
 1654530097142.99584960937,,,,,,4222,56,2111,0,
 1654530097165.09057617187,-0.11218261718,0.5341796875,-0.85876464843,,,,,,,,
 1654530097183.7978515625,,,,,,4206,-1655,2103,0,
 1654530097244.98559570312,-0.11279296875,0.53564453125,-0.86535644531,,,,,,,,
 1654530097264.18115234375,,,,,,4206,-3267,2103,0,
 1654530097304.25073242187,,,,,,4206,-4689,2103,0,
 1654530097324.81958007812,-0.10888671875,0.53845214843,-0.86938476562,,,,,,,,
 1654530097344.564453125,,,,,,4222,-5827,2111,0,
 1654530097384.75610351562,,,,,,4286,-6609,2143,0,
 1654530097405.9658203125,-0.10180664062,0.53771972656,-0.87243652343,,,,,,,,
 1654530097425.34448242187,,,,,,4318,-7033,2159,0,
 1654530097512.71630859375,,,,71,100,,,,
 1654530097515.92065429687,,,,,,,,,,71
 1654530097518.72827148437,-0.10485839843,0.53845214843,-0.86962890625,,,,,,,,
 1654530097523.21435546875,,,,,,4398,-7085,2199,0,
 1654530097545.94995117187,,,,,,4446,-6301,2223,0,
 1654530097564.779296875,-0.10925292968,0.53564453125,-0.86926269531,,,,,,,,
 1654530097586.05004882812,,,,,,4478,-5596,2239,0,
 1654530097626.39428710937,,,,,,4510,-4784,2255,0,
 1654530097645.13208007812,-0.10827636718,0.5322265625,-0.87023925781,,,,,,,,
 1654530097666.79956054687,,,,,,4534,-3994,2267,0,
 1654530097706.65551757812,,,,,,4542,-3314,2271,0,
 1654530097724.99658203125,-0.10986328125,0.53686523437,-0.86547851562,,,,,,,,
 1654530097747.42700195312,,,,,,4574,-2814,2287,0,
 1654530097787.16088867187,,,,,,4558,-2578,2279,0,
 1654530097804.73901367187,-0.10961914062,0.53698730468,-0.8642578125,,,,,,,,
 1654530097827.74926757812,,,,,,4590,-2630,2295,0,
 1654530097868.03247070312,,,,,,4590,-2997,2295,0,
 1654530097885.091796875,-0.10534667968,0.53393554687,-0.86682128906,,,,,,,,
 1654530097908.01049804687,,,,,,4606,-3633,2303,0,
 1654530097948.29370117187,,,,,,4606,-4509,2303,0,
 1654530097964.92578125,-0.10534667968,0.53137207031,-0.86706542968,,,,,,,,
 1654530097988.91259765625,,,,,,4606,-5543,2303,0,
 1654530098028.7685546875,,,,,,4606,-6634,2303,0,
 1654530098044.72924804687,-0.11059570312,0.52502441406,-0.86706542968,,,,,,,,
 1654530098069.57055664062,,,,,,4638,-7690,2319,0,
 1654530098109.30444335937,,,,,,4638,-8600,2319,0,
 1654530098126.02807617187,-0.10998535156,0.51684570312,-0.87548828125,,,,,,,,
 1654530098150.04541015625,,,,,,4638,-9263,2319,0,
 1654530098190.0234375,,,,,,4654,-9587,2327,0,
 1654530098204.88549804687,-0.10437011718,0.51513671875,-0.87622070312,,,,,,,,
 1654530098230.27612304687,,,,,,4638,-9547,2319,0,
 1654530098270.86450195312,,,,,,4670,-9072,2335,0,
 1654530098284.65844726562,-0.10388183593,0.51953125,-0.87243652343,,,,,,,,
 1654530098311.14770507812,,,,,,4734,-8180,2367,0,
 1654530098350.88159179687,,,,,,4798,-6887,2399,0,
 1654530098365.01123046875,-0.10363769531,0.5205078125,-0.87585449218,,,,,,,,
 1654530098391.5615234375,,,,,,4846,-5297,2423,0,
 1654530098431.41748046875,,,,,,4894,-3505,2447,0,
 1654530098499.65478515625,-0.10571289062,0.51892089843,-0.87854003906,,,,,,,,
 1654530098508.84057617187,,,,,,4918,-1635,2459,0,
 1654530098526.0830078125,-0.09301757812,0.54431152343,-0.89123535156,,,,,,,,
 1654530098558.00439453125,,,,71,100,,,,
 1654530098561.02563476562,,,,,,,,,,71
 1654530098563.95532226562,,,,,,4918,1824,2459,0,
 1654530098592.55029296875,,,,,,4894,3134,2447,0,
 1654530098604.78784179687,-0.07678222656,0.5654296875,-0.89916992187,,,,,,,,
 1654530098633.35229492187,,,,,,4910,4075,2455,0,
 1654530098673.23876953125,,,,,,4862,4546,2431,0,
 1654530098684.7744140625,-0.05139160156,0.56591796875,-0.84777832031,,,,,,,,
 1654530098714.34594726562,,,,,,4862,4546,2431,0,
 1654530098719.62548828125,,,,49,68,,,,
 1654530098764.57788085937,-0.05212402343,0.51818847656,-0.81433105468,,,,,,,,
 1654530098793.75268554687,,,,,,4830,4041,2415,0,
 1654530098834.37158203125,,,,,,4798,3104,2399,0,
 1654530098844.80859375,-0.08679199218,0.45849609375,-0.84985351562,,,,,,,,
 1654530098874.65478515625,,,,,,4790,1818,2395,0,
 1654530098914.57177734375,,,,,,4790,309,2395,0,
 1654530098924.82568359375,-0.10302734375,0.50463867187,-0.82678222656,,,,,,,,
 1654530098955.2822265625,,,,,,4782,-1295,2391,0,
 1654530098995.04663085937,,,,,,4782,-2856,2391,0,
 1654530099004.53759765625,-0.14282226562,0.560546875,-0.81079101562,,,,,,,,
 1654530099035.42138671875,,,,,,4790,-4223,2395,0,
 1654530099076.22338867187,,,,,,4782,-5268,2391,0,
 1654530099084.46313476562,-0.13012695312,0.56262207031,-0.82946777343,,,,,,,,
 1654530099115.89624023437,,,,,,4766,-5907,2383,0,
 1654530099156.17944335937,,,,,,4782,-6052,2391,0,
 1654530099164.57177734375,-0.11071777343,0.55725097656,-0.87145996093,,,,,,,,
 1654530099196.82885742187,,,,,,4798,-5688,2399,0,
 1654530099236.654296875,,,,,,4846,-4831,2423,0,
 1654530099244.80249023437,-0.16418457031,0.50891113281,-0.95568847656,,,,,,,,
 1654530099277.51733398437,,,,,,4886,-3529,2443,0,
 1654530099317.15966796875,,,,,,4910,-1920,2455,0,
 1654530099325.3994140625,-0.12243652343,0.54895019531,-0.92614746093,,,,,,,,
 1654530099357.53442382812,,,,,,4958,-117,2479,0,
 1654530099398.03125,,,,,,4990,1687,2495,0,
 1654530099406.14892578125,-0.03100585937,0.57287597656,-0.83837890625,,,,,,,,
 1654530099489.61450195312,,,,,,4990,3351,2495,0,
 1654530099502.8896484375,,,,,,4982,4704,2491,0,
 1654530099519.15551757812,,,,,,4990,5639,2495,0,
 1654530099559.01147460937,,,,,,4990,6026,2495,0,
 1654530099567.37329101562,-0.07507324218,0.56958007812,-0.82043457031,,,,,,,,
 1654530099600.45434570312,,,,,,4958,5809,2479,0,
 1654530099605.76440429687,,,,49,68,,,,
 1654530099652.60888671875,,,,68,100,,,,
 1654530099655.63012695312,,,,,,,,,,68
 1654530099658.49877929687,-0.07153320312,0.50329589843,-0.88598632812,,,,,,,,
 1654530099679.61694335937,,,,,,4910,4979,2455,0,
 1654530099722.982421875,,,,,,4862,3578,2431,0,
 1654530099728.62817382812,-0.11254882812,0.48071289062,-0.876953125,,,,,,,,
 1654530099760.24438476562,,,,,,4854,1726,2427,0,
 1654530099803.15209960937,,,,,,4822,-446,2411,0,
 1654530099808.5537109375,-0.15466308593,0.45861816406,-0.86022949218,,,,,,,,
 1654530099841.08544921875,,,,,,4790,-2767,2395,0,
 1654530099884.115234375,,,,,,4766,-5064,2383,0,
 1654530099921.19409179687,,,,,,4758,-7103,2379,0,
 1654530099963.97973632812,,,,,,4718,-8760,2359,0,
 1654530100001.82153320312,,,,,,4638,-9911,2319,0,
 1654530100044.72924804687,,,,,,4542,-10445,2271,0,
 1654530100082.20483398437,,,,,,4430,-10376,2215,0,
 1654530100125.29565429687,,,,,,4414,-9655,2207,0,
 1654530100162.95434570312,,,,,,4478,-8400,2239,0,
 1654530100205.6484375,,,,,,4478,-6747,2239,0,
 1654530100243.33764648437,,,,,,4478,-4878,2239,0,
 1654530100286.3369140625,,,,,,4478,-2957,2239,0,
 1654530100323.84301757812,,,,,,4478,-1203,2239,0,
 1654530100367.69677734375,,,,,,4522,268,2261,0,
 1654530100404.37890625,,,,,,4526,1268,2263,0,
 1654530100494.19213867187,-0.09777832031,0.51501464843,-0.85717773437,,,,,,,,
 1654530100498.31201171875,,,,,,4478,1703,2239,0,
 1654530100513.6318359375,,,,51,55,,,,
 1654530100529.04321289062,-0.08520507812,0.52160644531,-0.85412597656,,,,,,,,
 1654530100533.55981445312,,,,,,4334,785,2167,0,
 1654530100565.6337890625,,,,,,4158,-553,2079,0,
 1654530100609.3349609375,-0.08349609375,0.52880859375,-0.85998535156,,,,,,,,
 1654530100613.607421875,,,,,,4022,-2308,2011,0,
 1654530100646.16967773437,,,,,,3886,-4322,1943,0,
 1654530100689.74877929687,-0.09411621093,0.533203125,-0.8544921875,,,,,,,,
 1654530100693.83813476562,,,,,,3838,-6392,1919,0,
 1654530100727.1328125,,,,,,3774,-8342,1887,0,
 1654530100749.99047851562,,,,68,100,,,,
 1654530100753.04223632812,,,,,,,,,,68
 1654530100771.2001953125,-0.10852050781,0.53210449218,-0.86022949218,,,,,,,,
 1654530100775.28955078125,,,,,,3758,-9991,1879,0,
 1654530100807.48559570312,,,,,,3710,-11159,1855,0,
 1654530100850.1796875,-0.11828613281,0.52221679687,-0.86596679687,,,,,,,,
 1654530100854.36059570312,,,,,,3582,-11783,1791,0,
 1654530100887.83837890625,,,,,,3390,-11799,1695,0,
 1654530100930.8681640625,-0.11560058593,0.53332519531,-0.86767578125,,,,,,,,
 1654530100935.32373046875,,,,,,3118,-11235,1559,0,
 1654530100968.31323242187,,,,,,2646,-10207,1323,0,
 1654530101011.46508789062,-0.10913085937,0.53210449218,-0.89038085937,,,,,,,,
 1654530101015.5849609375,,,,,,1994,-8897,997,0,
 1654530101092.0009765625,-0.05822753906,0.5244140625,-0.89465332031,,,,,,,,
 1654530101096.029296875,,,,,,1042,-7563,521,0,
 1654530101130.78881835937,,,,,,366,-6242,183,0,
 1654530101172.38427734375,0.02282714843,0.50817871093,-0.87268066406,,,,,,,,
 1654530101176.595703125,,,,,,430,-4863,1261,-1046,
 1654530101210.01245117187,,,,,,494,-3670,647,-400,
 1654530101244.28369140625,0.06909179687,0.49450683593,-0.84265136718,,,,,,,,
 1654530101307.72973632812,,,,66,100,,,,
 1654530101310.93408203125,,,,,,,,,,66
 1654530101313.71118164062,,,,,,-736,-3291,0,-368,
 1654530101325.46044921875,0.04162597656,0.54223632812,-0.80981445312,,,,,,,,
 1654530101371.26733398437,,,,,,-672,-3005,585,-921,
 1654530101404.10424804687,-0.03259277343,0.59155273437,-0.76745605468,,,,,,,,
 1654530101492.60522460937,,,,,,-608,-2973,0,-304,
 1654530101532.82739257812,,,,,,-544,-3132,663,-935,
 1654530101538.44262695312,,,,53,55,,,,
 1654530101572.8359375,-0.07373046875,0.53894042968,-0.86047363281,,,,,,,,
 1654530101576.83374023437,,,,,,-480,-3303,519,-759,
 1654530101612.96655273437,,,,,,-512,-3437,471,-727,
 1654530101649.1298828125,-0.03857421875,0.478515625,-0.8818359375,,,,,,,,
