 Time,Acc_x,Acc_y,Acc_z,HRM_b,HRM_c,HRM_r,HRM_f,PPG_r,PPG_o,BTHRM
 1655061766469.26318359375,,,,,,2377,-8862,2377,0,
 1655061766496.75952148437,,,,,,2416,-9001,2416,0,
 1655061766530.54248046875,,,,,,2428,-8563,2428,0,
 1655061766563.95922851562,,,,,,2415,-7557,2415,0,
 1655061766597.83374023437,,,,,,2379,-6056,2379,0,
 1655061766631.189453125,,,,,,2384,-4146,2384,0,
 1655061766665.03344726562,,,,,,2391,-1967,2391,0,
 1655061766698.4501953125,,,,,,2375,312,2375,0,
 1655061766732.69091796875,,,,,,2359,2525,2359,0,
 1655061766765.68041992187,,,,,,2351,4502,2351,0,
 1655061766799.5244140625,,,,,,2323,6089,2323,0,
 1655061766832.94116210937,,,,,,2305,7187,2305,0,
 1655061766866.84619140625,,,,,,2272,7681,2272,0,
 1655061766901.02587890625,,,,,,2241,7565,2241,0,
 1655061766906.82421875,,,,66,100,,,,
 1655061766934.10693359375,,,,,,2214,6850,2214,0,
 1655061766967.615234375,,,,,,2190,5593,2190,0,
 1655061767001.36767578125,,,,,,2139,3897,2139,0,
 1655061767068.47583007812,,,,,,2095,1878,2095,0,
 1655061767102.0146484375,,,,,,2029,-2513,2029,0,
 1655061767121.85107421875,0.04553222656,-0.03930664062,-1.00109863281,,,,,,,,
 1655061767135.85864257812,,,,,,1987,-4582,1987,0,
 1655061767169.42797851562,,,,,,1935,-6383,1935,0,
 1655061767203.11938476562,,,,,,1907,-7806,1907,0,
 1655061767236.5361328125,,,,,,1884,-8808,1884,0,
 1655061767270.349609375,,,,,,1837,-9335,1837,0,
 1655061767303.9189453125,,,,,,1794,-9384,1794,0,
 1655061767337.33569335937,,,,,,1783,-8956,1783,0,
 1655061767370.99658203125,,,,,,1790,-8104,1790,0,
 1655061767405.08471679687,,,,,,1811,-6869,1811,0,
 1655061767438.28784179687,,,,,,1846,-5346,1846,0,
 1655061767471.82666015625,,,,,,1902,-3584,1902,0,
 1655061767505.5791015625,,,,,,1923,-1701,1923,0,
 1655061767538.96533203125,,,,,,1966,231,1966,0,
 1655061767572.80932617187,,,,,,1963,2085,1963,0,
 1655061767606.19555664062,,,,,,1943,3779,1943,0,
 1655061767640.16162109375,,,,,,1941,5212,1941,0,
 1655061767673.45629882812,,,,,,1908,6287,1908,0,
 1655061767707.361328125,,,,,,1913,6934,1913,0,
 1655061767741.08325195312,,,,,,1935,7127,1935,0,
 1655061767775.29345703125,,,,,,1924,6802,1924,0,
 1655061767781.3359375,,,,67,100,,,,
 1655061767808.0693359375,,,,,,1888,5964,1888,0,
 1655061767841.85229492187,,,,,,1868,4652,1868,0,
 1655061767875.29956054687,,,,,,1867,2944,1867,0,
 1655061767909.20458984375,,,,,,1843,903,1843,0,
 1655061767922.84594726562,0.04907226562,-0.04077148437,-1.01159667968,,,,,,,,
 1655061767942.77392578125,,,,,,1817,-1354,1817,0,
 1655061767976.34326171875,,,,,,1787,-3671,1787,0,
 1655061768009.91259765625,,,,,,1778,-5903,1778,0,
 1655061768070.30688476562,,,,,,1736,-7925,1736,0,
 1655061768110.83422851562,,,,,,1723,-10710,1723,0,
 1655061768144.40356445312,,,,,,1696,-11303,1696,0,
 1655061768178.064453125,,,,,,1671,-11319,1671,0,
 1655061768211.60327148437,,,,,,1648,-10743,1648,0,
 1655061768245.447265625,,,,,,1631,-9633,1631,0,
 1655061768279.0166015625,,,,,,1584,-8099,1584,0,
 1655061768312.40283203125,,,,,,1565,-6225,1565,0,
 1655061768346.09423828125,,,,,,1567,-4145,1567,0,
 1655061768379.69409179687,,,,,,1607,-1955,1607,0,
 1655061768413.72119140625,,,,,,1645,205,1645,0,
 1655061768446.89379882812,,,,,,1716,2236,1716,0,
 1655061768480.6767578125,,,,,,1765,4056,1765,0,
 1655061768514.03247070312,,,,,,1769,5587,1769,0,
 1655061768547.90698242187,,,,,,1781,6803,1781,0,
 1655061768581.29321289062,,,,,,1809,7692,1809,0,
 1655061768615.10668945312,,,,,,1774,8212,1774,0,
 1655061768648.5234375,,,,,,1779,8397,1779,0,
 1655061768683.22192382812,,,,,,1778,8248,1778,0,
 1655061768689.20336914062,,,,67,100,,,,
 1655061768715.75366210937,,,,,,1758,7771,1758,0,
 1655061768723.68823242187,0.06616210937,0.0283203125,-0.98254394531,,,,,,,,
 1655061768750.29956054687,,,,,,1765,6979,1765,0,
 1655061768783.1669921875,,,,,,1751,5878,1751,0,
 1655061768816.94995117187,,,,,,1775,4470,1775,0,
 1655061768850.427734375,,,,,,1730,2769,1730,0,
 1655061768884.21069335937,,,,,,1741,850,1741,0,
 1655061768917.74951171875,,,,,,1714,-1263,1714,0,
 1655061768951.44091796875,,,,,,1693,-3490,1693,0,
 1655061768984.97973632812,,,,,,1661,-5730,1661,0,
 1655061769068.41479492187,,,,,,1639,-7863,1639,0,
 1655061769086.51171875,,,,,,1636,-11304,1636,0,
 1655061769119.65380859375,,,,,,1616,-12399,1616,0,
 1655061769153.10107421875,,,,,,1563,-12978,1563,0,
 1655061769186.67041015625,,,,,,1570,-12943,1570,0,
 1655061769220.39233398437,,,,,,1595,-12316,1595,0,
 1655061769253.96166992187,,,,,,1603,-11108,1603,0,
 1655061769287.59204101562,,,,,,1666,-9392,1666,0,
 1655061769321.22241210937,,,,,,1740,-7252,1740,0,
 1655061769354.85278320312,,,,,,1787,-4849,1787,0,
 1655061769388.45263671875,,,,,,1834,-2327,1834,0,
 1655061769422.63232421875,,,,,,1855,166,1855,0,
 1655061769455.71337890625,,,,,,1904,2525,1904,0,
 1655061769489.099609375,,,,,,1865,4609,1865,0,
 1655061769525.99536132812,0.04052734375,-0.04345703125,-1.00561523437,,,,,,,,
 1655061769530.2373046875,,,,,,1861,6350,1861,0,
 1655061769556.32983398437,,,,,,1845,7678,1845,0,
 1655061769590.44848632812,,,,,,1839,8590,1839,0,
 1655061769623.59057617187,,,,,,1859,9077,1859,0,
 1655061769657.58715820312,,,,,,1863,9173,1863,0,
 1655061769691.64477539062,,,,,,1847,8915,1847,0,
 1655061769697.53466796875,,,,67,100,,,,
 1655061769724.84790039062,,,,,,1850,8330,1850,0,
 1655061769758.47827148437,,,,,,1851,7484,1851,0,
 1655061769792.16967773437,,,,,,1821,6362,1821,0,
 1655061769859.216796875,,,,,,1761,4997,1761,0,
 1655061769892.75561523437,,,,,,1749,3441,1749,0,
 1655061769926.50805664062,,,,,,1736,1673,1736,0,
 1655061769960.01635742187,,,,,,1717,-243,1717,0,
 1655061769993.82983398437,,,,,,1706,-2266,1706,0,
 1655061770068.4453125,,,,,,1709,-4317,1709,0,
 1655061770094.90405273437,,,,,,1705,-8251,1705,0,
 1655061770128.16821289062,,,,,,1773,-9893,1773,0,
 1655061770161.73754882812,,,,,,1856,-11152,1856,0,
 1655061770195.5205078125,,,,,,1905,-11974,1905,0,
 1655061770229.08984375,,,,,,1971,-12256,1971,0,
 1655061770262.78125,,,,,,1994,-11958,1994,0,
 1655061770296.3505859375,,,,,,2027,-11088,2027,0,
 1655061770321.52758789062,0.05151367187,-0.03674316406,-1.00073242187,,,,,,,,
 1655061770331.11010742187,,,,,,2001,-9696,2001,0,
 1655061770363.70288085937,,,,,,2012,-7843,2012,0,
 1655061770397.33325195312,,,,,,2027,-5637,2027,0,
 1655061770431.32983398437,,,,,,2076,-3268,2076,0,
 1655061770464.197265625,,,,,,2067,-877,2067,0,
 1655061770498.16333007812,,,,,,2097,1399,2097,0,
 1655061770531.42749023437,,,,,,2110,3409,2110,0,
 1655061770565.24096679687,,,,,,2087,5024,2087,0,
 1655061770598.65771484375,,,,,,2062,6183,2062,0,
 1655061770632.56274414062,,,,,,2071,6868,2071,0,
 1655061770665.9794921875,,,,,,2068,7065,2068,0,
 1655061770700.525390625,,,,,,2065,6812,2065,0,
 1655061770706.5068359375,,,,66,100,,,,
 1655061770733.27075195312,,,,,,2041,6168,2041,0,
 1655061770767.51147460937,,,,,,2022,5211,2022,0,
 1655061770800.56201171875,,,,,,2041,4068,2041,0,
 1655061770834.4365234375,,,,,,2041,2792,2041,0,
 1655061770868.005859375,,,,,,1995,1427,1995,0,
 1655061770901.66674804687,,,,,,1946,39,1946,0,
 1655061770935.23608398437,,,,,,1932,-1313,1932,0,
 1655061770968.7138671875,,,,,,1936,-2633,1936,0,
 1655061771002.283203125,,,,,,1979,-3874,1979,0,
 1655061771068.8115234375,,,,,,2048,-5017,2048,0,
 1655061771103.69311523437,,,,,,2203,-6870,2203,0,
 1655061771122.82763671875,0.0458984375,-0.06091308593,-1.0302734375,,,,,,,,
 1655061771136.83520507812,,,,,,2219,-7519,2219,0,
 1655061771170.49609375,,,,,,2255,-7928,2255,0,
 1655061771204.09594726562,,,,,,2247,-8032,2247,0,
 1655061771237.7568359375,,,,,,2250,-7827,2250,0,
 1655061771271.326171875,,,,,,2260,-7252,2260,0,
 1655061771304.83447265625,,,,,,2250,-6342,2250,0,
 1655061771338.61743164062,,,,,,2242,-5115,2242,0,
 1655061771372.09521484375,,,,,,2234,-3610,2234,0,
 1655061771405.87817382812,,,,,,2228,-1914,2228,0,
 1655061771439.56958007812,,,,,,2205,-129,2205,0,
 1655061771483.66748046875,,,,,,,,,,66
 1655061771486.81079101562,,,,,,2209,1660,2209,0,
 1655061771506.46411132812,,,,,,2159,3285,2159,0,
 1655061771540.33862304687,,,,,,2124,4656,2124,0,
 1655061771573.72485351562,,,,,,2103,5658,2103,0,
 1655061771607.59936523437,,,,,,2078,6238,2078,0,
 1655061771640.955078125,,,,,,2023,6315,2023,0,
 1655061771675.68408203125,,,,,,2008,5924,2008,0,
 1655061771681.75708007812,,,,65,100,,,,
 1655061771708.337890625,,,,,,1972,5080,1972,0,
 1655061771742.36499023437,,,,,,1936,3863,1936,0,
 1655061771775.93432617187,,,,,,1933,2336,1933,0,
 1655061771809.412109375,,,,,,1884,587,1884,0,
 1655061771842.9814453125,,,,,,1832,-1254,1832,0,
 1655061771876.64233398437,,,,,,1850,-3088,1850,0,
 1655061771910.1201171875,,,,,,1871,-4818,1871,0,
 1655061771922.8154296875,0.05285644531,-0.02502441406,-1.00280761718,,,,,,,,
 1655061771944.11669921875,,,,,,1914,-6338,1914,0,
 1655061771977.625,,,,,,1991,-7557,1991,0,
 1655061772011.072265625,,,,,,2063,-8421,2063,0,
 1655061772071.4970703125,,,,,,2084,-8899,2084,0,
 1655061772112.2685546875,,,,,,2112,-8561,2112,0,
 1655061772145.80737304687,,,,,,2073,-7769,2073,0,
 1655061772179.34619140625,,,,,,2081,-6570,2081,0,
 1655061772213.03759765625,,,,,,2068,-5049,2068,0,
 1655061772246.66796875,,,,,,2050,-3256,2050,0,
 1655061772279.87109375,,,,,,2059,-1287,2059,0,
 1655061772313.65405273437,,,,,,2028,737,2028,0,
 1655061772347.10131835937,,,,,,2023,2718,2023,0,
 1655061772380.91479492187,,,,,,1988,4553,1988,0,
 1655061772414.30102539062,,,,,,1948,6103,1948,0,
 1655061772448.572265625,,,,,,1900,7259,1900,0,
 1655061772467.76782226562,,,,,,,,,,66
 1655061772481.53125,,,,,,1870,7947,1870,0,
 1655061772515.466796875,,,,,,1821,8107,1821,0,
 1655061772549.67700195312,,,,,,1789,7706,1789,0,
 1655061772555.59741210937,,,,65,100,,,,
 1655061772582.94116210937,,,,,,1771,6767,1771,0,
 1655061772616.052734375,,,,,,1715,5311,1715,0,
 1655061772649.92724609375,,,,,,1697,3463,1697,0,
 1655061772683.40502929687,,,,,,1671,1309,1671,0,
 1655061772720.02612304687,,,,,,1651,-981,1651,0,
 1655061772725.27514648437,0.04907226562,-0.02844238281,-1.00756835937,,,,,,,,
 1655061772751.0625,,,,,,1611,-3292,1611,0,
 1655061772784.84545898437,,,,,,1581,-5463,1581,0,
 1655061772818.26220703125,,,,,,1608,-7344,1608,0,
 1655061772851.6484375,,,,,,1634,-8821,1634,0,
 1655061772885.18725585937,,,,,,1694,-9816,1694,0,
 1655061772919.03125,,,,,,1740,-10267,1740,0,
 1655061772952.478515625,,,,,,1805,-10156,1805,0,
 1655061772986.13940429687,,,,,,1837,-9533,1837,0,
 1655061773068.84204101562,,,,,,1819,-8469,1819,0,
 1655061773087.18310546875,,,,,,1790,-5320,1790,0,
 1655061773121.02709960937,,,,,,1775,-3461,1775,0,
 1655061773154.16918945312,,,,,,1765,-1555,1765,0,
 1655061773187.92163085937,,,,,,1771,296,1771,0,
 1655061773221.521484375,,,,,,1754,1987,1754,0,
 1655061773255.12133789062,,,,,,1764,3456,1764,0,
 1655061773288.72119140625,,,,,,1725,4608,1725,0,
 1655061773322.2294921875,,,,,,1718,5431,1718,0,
 1655061773355.98193359375,,,,,,1690,5874,1690,0,
 1655061773389.3681640625,,,,,,1653,5931,1653,0,
 1655061773424.06665039062,,,,,,1622,5609,1622,0,
 1655061773430.1396484375,,,,66,100,,,,
 1655061773503.65649414062,,,,,,,,,,66
 1655061773506.43359375,,,,,,1560,3947,1560,0,
 1655061773521.66186523437,0.046875,-0.02673339843,-1.01013183593,,,,,,,,
 1655061773557.79467773437,,,,,,1498,2693,1498,0,
 1655061773591.150390625,,,,,,1441,1209,1441,0,
 1655061773625.0859375,,,,,,1429,-398,1429,0,
 1655061773658.50268554687,,,,,,1406,-2071,1406,0,
 1655061773692.25512695312,,,,,,1418,-3719,1418,0,
 1655061773725.85498046875,,,,,,1472,-5229,1472,0,
 1655061773759.66845703125,,,,,,1516,-6499,1516,0,
 1655061773793.48193359375,,,,,,1580,-7424,1580,0,
 1655061773826.95971679687,,,,,,1641,-7954,1641,0,
 1655061773860.49853515625,,,,,,1662,-8043,1662,0,
 1655061773893.97631835937,,,,,,1661,-7661,1661,0,
 1655061773927.51513671875,,,,,,1627,-6833,1627,0,
 1655061773961.23706054687,,,,,,1620,-5596,1620,0,
 1655061773994.80639648437,,,,,,1603,-4008,1603,0,
 1655061774068.99462890625,,,,,,1598,-2182,1598,0,
 1655061774095.85009765625,,,,,,1564,1751,1564,0,
 1655061774129.81616210937,,,,,,1569,3621,1569,0,
 1655061774162.927734375,,,,,,1562,5269,1562,0,
 1655061774196.7412109375,,,,,,1540,6583,1540,0,
 1655061774230.03588867187,,,,,,1469,7480,1469,0,
 1655061774263.78833007812,,,,,,1446,7928,1446,0,
 1655061774298.15112304687,,,,,,1414,7906,1414,0,
 1655061774304.01049804687,,,,67,100,,,,
 1655061774322.7177734375,0.04638671875,-0.0341796875,-1.01220703125,,,,,,,,
 1655061774332.1171875,,,,,,1399,7408,1399,0,
 1655061774364.4658203125,,,,,,1362,6460,1362,0,
 1655061774398.30981445312,,,,,,1348,5130,1348,0,
 1655061774431.69604492187,,,,,,1329,3475,1329,0,
 1655061774459.55859375,,,,,,,,,,67
 1655061774467.64575195312,,,,,,1308,1598,1308,0,
 1655061774499.04833984375,,,,,,1304,-415,1304,0,
 1655061774532.86181640625,,,,,,1308,-2495,1308,0,
 1655061774566.33959960937,,,,,,1356,-4498,1356,0,
 1655061774600.12255859375,,,,,,1417,-6348,1417,0,
 1655061774632.166015625,,,,,,1498,-7943,1498,0,
 1655061774667.38330078125,,,,,,1569,-9193,1569,0,
 1655061774700.92211914062,,,,,,1606,-10044,1606,0,
 1655061774734.5830078125,,,,,,1603,-10438,1603,0,
 1655061774768.15234375,,,,,,1598,-10365,1598,0,
 1655061774802.24047851562,,,,,,1624,-9771,1624,0,
 1655061774835.35205078125,,,,,,1613,-8729,1613,0,
 1655061774869.19604492187,,,,,,1603,-7273,1603,0,
 1655061774902.73486328125,,,,,,1623,-5466,1623,0,
 1655061774936.2431640625,,,,,,1602,-3413,1602,0,
 1655061774969.8125,,,,,,1598,-1207,1598,0,
 1655061775003.53442382812,,,,,,1596,1014,1596,0,
 1655061775068.84204101562,,,,,,1593,3120,1593,0,
 1655061775104.42553710937,,,,,,1564,6619,1564,0,
 1655061775122.5224609375,0.048828125,-0.02783203125,-1.00439453125,,,,,,,,
 1655061775138.3916015625,,,,,,1530,7811,1530,0,
 1655061775171.62524414062,,,,,,1521,8524,1521,0,
 1655061775205.408203125,,,,,,1468,8744,1468,0,
 1655061775239.61840820312,,,,,,1472,8450,1472,0,
 1655061775245.75244140625,,,,66,100,,,,
 1655061775272.36376953125,,,,,,1446,7658,1446,0,
 1655061775306.1162109375,,,,,,1418,6421,1418,0,
 1655061775339.53295898437,,,,,,1386,4807,1386,0,
 1655061775373.62109375,,,,,,1383,2926,1383,0,
 1655061775406.76318359375,,,,,,1398,836,1398,0,
 1655061775440.79028320312,,,,,,1457,-1300,1457,0,
 1655061775461.84741210937,,,,,,,,,,67
 1655061775474.39013671875,,,,,,1544,-3391,1544,0,
 1655061775507.98999023437,,,,,,1663,-5310,1663,0,
 1655061775575.34228515625,,,,,,1696,-6987,1696,0,
 1655061775608.8505859375,,,,,,1671,-8370,1671,0,
 1655061775642.419921875,,,,,,1675,-9357,1675,0,
 1655061775675.92822265625,,,,,,1680,-9919,1680,0,
 1655061775709.6806640625,,,,,,1650,-10044,1650,0,
 1655061775743.21948242187,,,,,,1636,-9739,1636,0,
 1655061775776.84985351562,,,,,,1652,-9001,1652,0,
 1655061775810.84643554687,,,,,,1662,-7883,1662,0,
 1655061775844.2021484375,,,,,,1665,-6453,1665,0,
 1655061775877.74096679687,,,,,,1656,-4788,1656,0,
 1655061775911.31030273437,,,,,,1640,-2949,1640,0,
 1655061775921.74731445312,0.04406738281,-0.02612304687,-1.01135253906,,,,,,,,
 1655061775944.87963867187,,,,,,1616,-1044,1616,0,
 1655061775978.6015625,,,,,,1603,845,1603,0,
 1655061776012.32348632812,,,,,,1569,2619,1569,0,
 1655061776076.10522460937,,,,,,1530,4200,1530,0,
 1655061776113.18408203125,,,,,,1472,6397,1472,0,
 1655061776147.08911132812,,,,,,1464,6914,1464,0,
 1655061776180.32275390625,,,,,,1385,6952,1385,0,
 1655061776214.685546875,,,,,,1358,6552,1358,0,
 1655061776220.75854492187,,,,66,100,,,,
 1655061776247.43090820312,,,,,,1304,5679,1304,0,
 1655061776281.18334960937,,,,,,1315,4421,1315,0,
 1655061776314.60009765625,,,,,,1364,2843,1364,0,
 1655061776348.474609375,,,,,,1432,1039,1432,0,
 1655061776381.89135742187,,,,,,1543,-874,1543,0,
 1655061776415.67431640625,,,,,,1590,-2764,1590,0,
 1655061776449.3046875,,,,,,1615,-4509,1615,0,
 1655061776469.2021484375,,,,,,,,,,68
 1655061776483.33178710937,,,,,,1637,-5976,1637,0,
 1655061776516.47387695312,,,,,,1612,-7051,1612,0,
 1655061776550.2568359375,,,,,,1593,-7650,1593,0,
 1655061776583.79565429687,,,,,,1579,-7735,1579,0,
 1655061776617.517578125,,,,,,1581,-7299,1581,0,
 1655061776651.05639648437,,,,,,1542,-6384,1542,0,
 1655061776684.7783203125,,,,,,1524,-5043,1524,0,
 1655061776721.1552734375,,,,,,1510,-3376,1510,0,
 1655061776751.94750976562,,,,,,1496,-1519,1496,0,
 1655061776785.45581054687,,,,,,1460,394,1460,0,
 1655061776819.60498046875,,,,,,1453,2258,1453,0,
 1655061776852.7470703125,,,,,,1374,3899,1374,0,
 1655061776886.40795898437,,,,,,1356,5234,1356,0,
 1655061776920.0078125,,,,,,1326,6153,1326,0,
 1655061776953.63818359375,,,,,,1268,6578,1268,0,
 1655061776987.90942382812,,,,,,1199,6483,1199,0,
 1655061776994.19604492187,,,,66,100,,,,
 1655061777067.77392578125,,,,,,1175,5882,1175,0,
 1655061777088.12915039062,,,,,,1123,3327,1123,0,
 1655061777121.72900390625,,,,,,1063,1522,1063,0,
 1655061777155.84765625,,,,,,1037,-487,1037,0,
 1655061777189.02026367187,,,,,,1021,-2584,1021,0,
 1655061777222.46752929687,,,,,,1058,-4649,1058,0,
 1655061777256.28100585937,,,,,,1113,-6535,1113,0,
 1655061777289.63671875,,,,,,1191,-8131,1191,0,
 1655061777323.48071289062,,,,,,1245,-9341,1245,0,
 1655061777356.83642578125,,,,,,1287,-10093,1287,0,
 1655061777390.86352539062,,,,,,1312,-10312,1312,0,
 1655061777424.158203125,,,,,,1286,-10016,1286,0,
 1655061777464.5634765625,,,,,,,,,,68
 1655061777467.31005859375,,,,,,1272,-9197,1272,0,
 1655061777491.87670898437,,,,,,1266,-7915,1266,0,
 1655061777521.4482421875,0.04895019531,-0.03125,-1.00329589843,,,,,,,,
 1655061777558.83227539062,,,,,,1244,-6250,1244,0,
 1655061777592.58471679687,,,,,,1235,-4308,1235,0,
 1655061777626.09301757812,,,,,,1239,-2177,1239,0,
 1655061777659.78442382812,,,,,,1233,-10,1233,0,
 1655061777693.35375976562,,,,,,1212,2068,1212,0,
 1655061777726.95361328125,,,,,,1187,3959,1187,0,
 1655061777760.49243164062,,,,,,1165,5525,1165,0,
 1655061777794.18383789062,,,,,,1121,6702,1121,0,
 1655061777828.18041992187,,,,,,1124,7460,1124,0,
 1655061777861.56665039062,,,,,,1090,7710,1090,0,
 1655061777895.86840820312,,,,,,1040,7483,1040,0,
 1655061777901.94140625,,,,67,100,,,,
 1655061777928.61376953125,,,,,,1015,6811,1015,0,
 1655061777962.39672851562,,,,,,1011,5753,1011,0,
 1655061777996.0576171875,,,,,,993,4355,993,0,
 1655061778068.99462890625,,,,,,958,2731,958,0,
 1655061778097.009765625,,,,,,991,-818,991,0,
 1655061778130.27392578125,,,,,,1057,-2515,1057,0,
 1655061778164.392578125,,,,,,1124,-4058,1124,0,
 1655061778197.41259765625,,,,,,1198,-5358,1198,0,
 1655061778231.31762695312,,,,,,1234,-6342,1234,0,
 1655061778264.64282226562,,,,,,1253,-6985,1253,0,
 1655061778298.63940429687,,,,,,1256,-7245,1256,0,
 1655061778322.595703125,0.03784179687,-0.02734375,-0.998046875,,,,,,,,
 1655061778332.20874023437,,,,,,1248,-7118,1248,0,
 1655061778365.83911132812,,,,,,1236,-6628,1236,0,
 1655061778399.255859375,,,,,,1234,-5792,1234,0,
 1655061778433.22192382812,,,,,,1237,-4662,1237,0,
 1655061778459.0703125,,,,,,,,,,68
 1655061778500.72680664062,,,,,,1255,-3302,1255,0,
 1655061778534.08251953125,,,,,,1238,-1796,1238,0,
 1655061778567.52978515625,,,,,,1245,-225,1245,0,
 1655061778601.12963867187,,,,,,1218,1295,1218,0,
 1655061778634.79052734375,,,,,,1220,2716,1220,0,
 1655061778668.32934570312,,,,,,1183,3913,1183,0,
 1655061778702.14282226562,,,,,,1152,4815,1152,0,
 1655061778735.74267578125,,,,,,1131,5360,1131,0,
 1655061778769.373046875,,,,,,1115,5501,1115,0,
 1655061778803.70532226562,,,,,,1100,5231,1100,0,
 1655061778809.7783203125,,,,67,100,,,,
 1655061778836.84741210937,,,,,,1094,4536,1094,0,
 1655061778870.02001953125,,,,,,1079,3451,1079,0,
 1655061778903.86401367187,,,,,,1127,2040,1127,0,
 1655061778937.4638671875,,,,,,1219,397,1219,0,
 1655061778970.94165039062,,,,,,1323,-1382,1323,0,
 1655061779004.57202148437,,,,,,1394,-3213,1394,0,
 1655061779069.26928710937,,,,,,1454,-4934,1454,0,
 1655061779105.37158203125,,,,,,1487,-7671,1487,0,
 1655061779121.63745117187,0.04211425781,-0.02575683593,-1.01452636718,,,,,,,,
 1655061779139.06298828125,,,,,,1471,-8503,1471,0,
 1655061779173.02905273437,,,,,,1450,-8892,1450,0,
 1655061779206.35424804687,,,,,,1462,-8800,1462,0,
 1655061779239.7099609375,,,,,,1461,-8224,1461,0,
 1655061779273.6455078125,,,,,,1459,-7217,1459,0,
 1655061779307.06225585937,,,,,,1483,-5797,1483,0,
 1655061779340.84521484375,,,,,,1480,-4088,1480,0,
 1655061779374.353515625,,,,,,1479,-2171,1479,0,
 1655061779408.13647460937,,,,,,1471,-155,1471,0,
 1655061779441.70581054687,,,,,,1470,1868,1470,0,
 1655061779461.81689453125,,,,,,,,,,68
 1655061779475.36669921875,,,,,,1426,3765,1426,0,
 1655061779509.21069335937,,,,,,1412,5439,1412,0,
 1655061779542.59692382812,,,,,,1408,6829,1408,0,
 1655061779576.19677734375,,,,,,1374,7852,1374,0,
 1655061779609.85766601562,,,,,,1355,8455,1355,0,
 1655061779643.42700195312,,,,,,1391,8631,1391,0,
 1655061779677.78979492187,,,,,,1474,8388,1474,0,
 1655061779684.22900390625,,,,67,100,,,,
 1655061779710.59619140625,,,,,,1577,7733,1577,0,
 1655061779744.53173828125,,,,,,1691,6702,1691,0,
 1655061779778.10107421875,,,,,,1780,5341,1780,0,
 1655061779811.51782226562,,,,,,1829,3690,1829,0,
 1655061779845.48388671875,,,,,,1887,1839,1887,0,
 1655061779878.80908203125,,,,,,1885,-164,1885,0,
 1655061779912.439453125,,,,,,1886,-2202,1886,0,
 1655061779921.13696289062,0.02905273437,-0.08972167968,-1.03308105468,,,,,,,,
 1655061779946.03930664062,,,,,,1845,-4228,1845,0,
 1655061779979.7001953125,,,,,,1870,-6109,1870,0,
 1655061780013.26953125,,,,,,1884,-7768,1884,0,
 1655061780076.89868164062,,,,,,1899,-9123,1899,0,
 1655061780114.37426757812,,,,,,1872,-10577,1872,0,
 1655061780147.51635742187,,,,,,1868,-10590,1868,0,
 1655061780181.75708007812,,,,,,1846,-10130,1846,0,
 1655061780214.74658203125,,,,,,1789,-9179,1789,0,
 1655061780248.7431640625,,,,,,1768,-7791,1768,0,
 1655061780282.15991210937,,,,,,1748,-6038,1748,0,
 1655061780315.97338867187,,,,,,1733,-4038,1733,0,
 1655061780349.35961914062,,,,,,1692,-1904,1692,0,
 1655061780383.32568359375,,,,,,1682,227,1682,0,
 1655061780416.833984375,,,,,,1720,2237,1720,0,
 1655061780465.93676757812,,,,,,,,,,68
 1655061780468.77490234375,,,,,,1811,4019,1811,0,
 1655061780484.216796875,,,,,,1902,5457,1902,0,
 1655061780518.09130859375,,,,,,2037,6488,2037,0,
 1655061780551.20288085937,,,,,,2118,7026,2118,0,
 1655061780584.9248046875,,,,,,2152,7043,2152,0,
 1655061780619.2265625,,,,,,2177,6554,2177,0,
 1655061780625.26904296875,,,,66,100,,,,
 1655061780652.12451171875,,,,,,2187,5598,2187,0,
 1655061780685.69384765625,,,,,,2178,4250,2178,0,
 1655061780722.80322265625,,,,,,2153,2601,2153,0,
 1655061780752.95458984375,,,,,,2152,762,2152,0,
 1655061780786.5849609375,,,,,,2145,-1177,2145,0,
 1655061780820.18481445312,,,,,,2155,-3057,2155,0,
 1655061780854.24243164062,,,,,,2150,-4771,2150,0,
 1655061780887.44555664062,,,,,,2110,-6229,2110,0,
 1655061780921.228515625,,,,,,2095,-7300,2095,0,
 1655061780954.82836914062,,,,,,2068,-7932,2068,0,
 1655061780988.21459960937,,,,,,2021,-8089,2021,0,
 1655061781069.08618164062,,,,,,1990,-7729,1990,0,
 1655061781089.25830078125,,,,,,1917,-5623,1917,0,
 1655061781122.58349609375,,,,,,1901,-3997,1901,0,
 1655061781156.51904296875,,,,,,1873,-2152,1873,0,
 1655061781190.36303710937,,,,,,1817,-214,1817,0,
 1655061781223.81030273437,,,,,,1779,1660,1779,0,
 1655061781257.22705078125,,,,,,1805,3350,1805,0,
 1655061781291.04052734375,,,,,,1859,4726,1859,0,
 1655061781324.4267578125,,,,,,1955,5699,1955,0,
 1655061781358.39282226562,,,,,,2096,6202,2096,0,
 1655061781392.69458007812,,,,,,2158,6174,2158,0,
 1655061781398.82861328125,,,,66,100,,,,
 1655061781425.5009765625,,,,,,2234,5651,2234,0,
 1655061781464.41088867187,,,,,,,,,,68
 1655061781467.2490234375,,,,,,2234,4643,2234,0,
 1655061781492.73120117187,,,,,,2245,3230,2245,0,
 1655061781526.697265625,0.04382324218,-0.01733398437,-1.00036621093,,,,,,,,
 1655061781531.06127929687,,,,,,2229,1529,2229,0,
 1655061781559.93090820312,,,,,,2218,-291,2218,0,
 1655061781593.56127929687,,,,,,2213,-2109,2213,0,
 1655061781627.22216796875,,,,,,2222,-3788,2222,0,
 1655061781660.69995117187,,,,,,2216,-5200,2216,0,
 1655061781694.421875,,,,,,2199,-6245,2199,0,
 1655061781727.9912109375,,,,,,2196,-6836,2196,0,
 1655061781761.8046875,,,,,,2160,-6946,2160,0,
 1655061781795.3740234375,,,,,,2131,-6556,2131,0,
 1655061781828.88232421875,,,,,,2109,-5698,2109,0,
 1655061781862.84838867187,,,,,,2072,-4458,2072,0,
 1655061781896.17358398437,,,,,,2034,-2917,2034,0,
 1655061781929.80395507812,,,,,,2009,-1226,2009,0,
 1655061781963.37329101562,,,,,,1977,475,1977,0,
 1655061781997.00366210937,,,,,,1943,2045,1943,0,
 1655061782069.20825195312,,,,,,1889,3330,1889,0,
 1655061782098.04736328125,,,,,,1847,4624,1847,0,
 1655061782132.22705078125,,,,,,1788,4480,1788,0,
 1655061782138.69677734375,,,,66,100,,,,
 1655061782164.880859375,,,,,,1769,3769,1769,0,
 1655061782199.39624023437,,,,,,1805,2575,1805,0,
 1655061782235.04077148437,,,,,,1880,-935,1880,0,
 1655061782266.13818359375,,,,,,1963,-2975,1963,0,
 1655061782299.61596679687,,,,,,2062,-4985,2062,0,
 1655061782321.34448242187,0.02770996093,-0.02038574218,-1.0048828125,,,,,,,,
 1655061782333.4599609375,,,,,,2123,-6779,2123,0,
 1655061782366.9072265625,,,,,,2147,-8186,2147,0,
 1655061782400.56811523437,,,,,,2188,-9072,2188,0,
 1655061782434.16796875,,,,,,2168,-9354,2168,0,
 1655061782467.82885742187,,,,,,2178,-8963,2178,0,
 1655061782501.36767578125,,,,,,2133,-7930,2133,0,
 1655061782535.69995117187,,,,,,2124,-6318,2124,0,
 1655061782568.65893554687,,,,,,2125,-4205,2125,0,
 1655061782602.2587890625,,,,,,2127,-1763,2127,0,
 1655061782635.79760742187,,,,,,2102,836,2102,0,
 1655061782669.6416015625,,,,,,2078,3376,2078,0,
 1655061782703.2109375,,,,,,2050,5679,2050,0,
 1655061782736.68872070312,,,,,,2030,7523,2030,0,
 1655061782770.31909179687,,,,,,1980,8791,1980,0,
 1655061782804.01049804687,,,,,,1933,9346,1933,0,
 1655061782838.31225585937,,,,,,1916,9151,1916,0,
 1655061782844.53784179687,,,,67,100,,,,
 1655061782871.63745117187,,,,,,1862,8189,1862,0,
 1655061782904.84057617187,,,,,,1823,6532,1823,0,
 1655061782938.37939453125,,,,,,1786,4276,1786,0,
 1655061782972.10131835937,,,,,,1750,1614,1750,0,
 1655061783005.5791015625,,,,,,1716,-1293,1716,0,
 1655061783069.72705078125,,,,,,1681,-4216,1681,0,
 1655061783106.56176757812,,,,,,1602,-9284,1602,0,
 1655061783121.51538085937,0.04125976562,-0.02600097656,-1.00720214843,,,,,,,,
 1655061783139.94799804687,,,,,,1572,-11067,1572,0,
 1655061783174.06665039062,,,,,,1581,-12146,1581,0,
 1655061783207.60546875,,,,,,1613,-12457,1613,0,
 1655061783241.4189453125,,,,,,1681,-11943,1681,0,
 1655061783308.34399414062,,,,,,1793,-10623,1793,0,
 1655061783341.8828125,,,,,,1832,-8610,1832,0,
 1655061783375.66577148437,,,,,,1854,-6010,1854,0,
 1655061783409.17407226562,,,,,,1859,-3001,1859,0,
 1655061783442.5908203125,,,,,,1828,202,1828,0,
 1655061783482.90454101562,,,,,,,,,,68
 1655061783486.169921875,,,,,,,,,,68
 1655061783488.91650390625,,,,,,1803,3416,1803,0,
 1655061783510.06518554687,,,,,,1823,6431,1823,0,
 1655061783544.18383789062,,,,,,1806,9024,1806,0,
 1655061783577.29541015625,,,,,,1789,11031,1789,0,
 1655061783610.83422851562,,,,,,1767,12335,1767,0,
 1655061783644.67822265625,,,,,,1757,12837,1757,0,
 1655061783678.97998046875,,,,,,1721,12480,1721,0,
 1655061783685.20556640625,,,,68,100,,,,
 1655061783711.72534179687,,,,,,1689,11297,1689,0,
 1655061783745.35571289062,,,,,,1656,9337,1656,0,
 1655061783779.16918945312,,,,,,1629,6744,1629,0,
 1655061783812.76904296875,,,,,,1599,3683,1599,0,
 1655061783846.21630859375,,,,,,1556,329,1556,0,
 1655061783880.24340820312,,,,,,1511,-3102,1511,0,
 1655061783913.50756835937,,,,,,1464,-6385,1464,0,
 1655061783922.75439453125,0.04968261718,-0.0244140625,-1.00952148437,,,,,,,,
 1655061783947.107421875,,,,,,1430,-9303,1430,0,
 1655061783980.61572265625,,,,,,1379,-11681,1379,0,
 1655061784014.55126953125,,,,,,1358,-13385,1358,0,
 1655061784078.63818359375,,,,,,1306,-14350,1306,0,
 1655061784115.16772460937,,,,,,1199,-13929,1199,0,
 1655061784148.98120117187,,,,,,1153,-12652,1153,0,
 1655061784182.39794921875,,,,,,1164,-10759,1164,0,
 1655061784216.638671875,,,,,,1194,-8401,1194,0,
 1655061784249.75024414062,,,,,,1228,-5725,1228,0,
 1655061784283.56372070312,,,,,,1309,-2875,1309,0,
 1655061784316.98046875,,,,,,1347,-14,1347,0,
 1655061784350.7939453125,,,,,,1376,2724,1376,0,
 1655061784384.36328125,,,,,,1369,5209,1369,0,
 1655061784417.84106445312,,,,,,1386,7375,1386,0,
 1655061784464.53295898437,,,,,,,,,,69
 1655061784467.37109375,,,,,,1365,9114,1365,0,
 1655061784485.13232421875,,,,,,1344,10380,1344,0,
 1655061784518.70166015625,,,,,,1310,11132,1310,0,
 1655061784552.78979492187,,,,,,1297,11364,1297,0,
 1655061784586.66430664062,,,,,,1318,11099,1318,0,
 1655061784592.95092773437,,,,68,100,,,,
 1655061784619.62329101562,,,,,,1302,10302,1302,0,
 1655061784653.19262695312,,,,,,1270,9023,1270,0,
 1655061784686.853515625,,,,,,1247,7309,1247,0,
 1655061784723.23046875,,,,,,1243,5215,1243,0,
 1655061784754.1142578125,,,,,,1205,2815,1205,0,
 1655061784787.74462890625,,,,,,1161,196,1161,0,
 1655061784821.31396484375,,,,,,1123,-2538,1123,0,
 1655061784854.97485351562,,,,,,1086,-5260,1086,0,
 1655061784888.97143554687,,,,,,1055,-7821,1055,0,
 1655061784922.17456054687,,,,,,1017,-10086,1017,0,
 1655061784955.95751953125,,,,,,974,-11931,974,0,
 1655061784989.587890625,,,,,,950,-13215,950,0,
 1655061785069.421875,,,,,,940,-13878,940,0,
 1655061785090.2958984375,,,,,,873,-13212,873,0,
 1655061785124.07885742187,,,,,,858,-11919,858,0,
 1655061785157.46508789062,,,,,,869,-10074,869,0,
 1655061785191.40063476562,,,,,,871,-7779,871,0,
 1655061785225.12255859375,,,,,,958,-5138,958,0,
 1655061785258.47827148437,,,,,,1038,-2305,1038,0,
 1655061785292.01708984375,,,,,,1090,558,1090,0,
 1655061785325.86108398437,,,,,,1108,3316,1108,0,
 1655061785359.27783203125,,,,,,1121,5851,1121,0,
 1655061785393.18286132812,,,,,,1122,8068,1122,0,
 1655061785426.66064453125,,,,,,1106,9849,1106,0,
 1655061785464.71606445312,,,,,,,,,,69
 1655061785467.70678710937,,,,,,1066,11157,1066,0,
 1655061785493.92138671875,,,,,,1084,11975,1084,0,
 1655061785524.04223632812,0.04809570312,-0.01904296875,-0.99243164062,,,,,,,,
 1655061785531.76318359375,,,,,,1089,12278,1089,0,
 1655061785562.12817382812,,,,,,1073,12047,1073,0,
 1655061785568.71997070312,,,,68,100,,,,
 1655061785594.9345703125,,,,,,1076,11321,1076,0,
 1655061785628.19873046875,,,,,,1066,10091,1066,0,
 1655061785662.13427734375,,,,,,1025,8415,1025,0,
 1655061785695.55102539062,,,,,,1016,6361,1016,0,
 1655061785729.12036132812,,,,,,989,3966,989,0,
 1655061785762.75073242187,,,,,,966,1320,966,0,
 1655061785796.41162109375,,,,,,939,-1483,939,0,
 1655061785830.0419921875,,,,,,905,-4327,905,0,
 1655061785863.611328125,,,,,,883,-7100,883,0,
 1655061785897.63842773437,,,,,,855,-9670,855,0,
 1655061785930.994140625,,,,,,849,-11887,849,0,
 1655061785964.62451171875,,,,,,830,-13622,830,0,
 1655061785997.888671875,,,,,,809,-14759,809,0,
 1655061786069.7880859375,,,,,,808,-15231,808,0,
 1655061786099.0849609375,,,,,,895,-13988,895,0,
 1655061786132.5322265625,,,,,,977,-12303,977,0,
 1655061786166.4677734375,,,,,,1040,-10025,1040,0,
 1655061786199.85400390625,,,,,,1094,-7286,1094,0,
 1655061786234.12524414062,,,,,,1118,-4248,1118,0,
 1655061786267.11474609375,,,,,,1130,-1075,1130,0,
 1655061786300.77563476562,,,,,,1111,2039,1111,0,
 1655061786321.58862304687,0.04797363281,-0.01989746093,-1.005859375,,,,,,,,
 1655061786334.314453125,,,,,,1106,4914,1106,0,
 1655061786368.25,,,,,,1103,7412,1103,0,
 1655061786401.78881835937,,,,,,1097,9397,1097,0,
 1655061786435.54125976562,,,,,,1091,10805,1091,0,
 1655061786459.28393554687,,,,,,,,,,68
 1655061786468.8359375,,,,,,1126,11630,1126,0,
 1655061786502.71044921875,,,,,,1111,11830,1111,0,
 1655061786537.04272460937,,,,,,1119,11457,1119,0,
 1655061786543.32934570312,,,,67,100,,,,
 1655061786570.12377929687,,,,,,1080,10540,1080,0,
 1655061786603.32690429687,,,,,,1088,9191,1088,0,
 1655061786637.1708984375,,,,,,1039,7455,1039,0,
 1655061786670.6181640625,,,,,,1033,5446,1033,0,
 1655061786704.46215820312,,,,,,1004,3231,1004,0,
 1655061786737.97045898437,,,,,,992,893,992,0,
 1655061786771.4482421875,,,,,,985,-1453,985,0,
 1655061786805.04809570312,,,,,,949,-3772,949,0,
 1655061786838.8310546875,,,,,,917,-5977,917,0,
 1655061786872.43090820312,,,,,,940,-7963,940,0,
 1655061786906.30541992187,,,,,,978,-9658,978,0,
 1655061786939.63061523437,,,,,,1064,-10999,1064,0,
 1655061786973.13891601562,,,,,,1152,-11874,1152,0,
 1655061787006.89135742187,,,,,,1210,-12268,1210,0,
 1655061787070.73413085937,,,,,,1275,-12115,1275,0,
 1655061787107.69091796875,,,,,,1328,-10141,1328,0,
 1655061787122.2783203125,0.04870605468,-0.01318359375,-1.0029296875,,,,,,,,
 1655061787141.53491210937,,,,,,1344,-8395,1344,0,
 1655061787174.92114257812,,,,,,1328,-6236,1328,0,
 1655061787208.73461914062,,,,,,1331,-3791,1331,0,
 1655061787242.57861328125,,,,,,1334,-1202,1334,0,
 1655061787275.99536132812,,,,,,1331,1394,1331,0,
 1655061787309.412109375,,,,,,1330,3837,1330,0,
 1655061787343.2255859375,,,,,,1342,6012,1342,0,
 1655061787376.794921875,,,,,,1324,7773,1324,0,
 1655061787410.30322265625,,,,,,1292,9021,1292,0,
 1655061787444.23876953125,,,,,,1271,9711,1271,0,
 1655061787464.0751953125,,,,,,,,,,68
 1655061787477.56396484375,,,,,,1254,9807,1254,0,
 1655061787511.86572265625,,,,,,1198,9320,1198,0,
 1655061787518.21337890625,,,,67,100,,,,
 1655061787544.82470703125,,,,,,1185,8313,1185,0,
 1655061787578.8212890625,,,,,,1164,6882,1164,0,
 1655061787612.05493164062,,,,,,1142,5096,1142,0,
 1655061787645.62426757812,,,,,,1109,3076,1109,0,
 1655061787679.43774414062,,,,,,1108,926,1108,0,
 1655061787712.91552734375,,,,,,1117,-1257,1117,0,
 1655061787746.60693359375,,,,,,1158,-3374,1158,0,
 1655061787780.17626953125,,,,,,1223,-5331,1223,0,
 1655061787813.74560546875,,,,,,1338,-7067,1338,0,
 1655061787847.3759765625,,,,,,1403,-8510,1403,0,
 1655061787881.189453125,,,,,,1480,-9613,1480,0,
 1655061787915.15551757812,,,,,,1537,-10306,1537,0,
 1655061787923.36474609375,0.04333496093,-0.01513671875,-1.01025390625,,,,,,,,
 1655061787948.02294921875,,,,,,1570,-10588,1570,0,
 1655061787981.98901367187,,,,,,1555,-10439,1555,0,
 1655061788015.40576171875,,,,,,1546,-9840,1546,0,
 1655061788079.49267578125,,,,,,1565,-8779,1565,0,
 1655061788116.38842773437,,,,,,1554,-5564,1554,0,
 1655061788149.98828125,,,,,,1566,-3510,1566,0,
 1655061788183.923828125,,,,,,1550,-1281,1550,0,
 1655061788217.46264648437,,,,,,1563,998,1563,0,
 1655061788251.33715820312,,,,,,1545,3206,1545,0,
 1655061788284.47924804687,,,,,,1506,5220,1506,0,
 1655061788318.201171875,,,,,,1487,6925,1487,0,
 1655061788351.7705078125,,,,,,1472,8224,1472,0,
 1655061788385.43139648437,,,,,,1414,8994,1414,0,
 1655061788419.00073242187,,,,,,1377,9218,1377,0,
 1655061788465.5400390625,,,,,,,,,,68
 1655061788468.65283203125,,,,,,1377,8885,1377,0,
 1655061788475.09204101562,,,,66,100,,,,
 1655061788486.20043945312,,,,,,1312,7972,1312,0,
 1655061788519.89184570312,,,,,,1270,6552,1270,0,
 1655061788553.52221679687,,,,,,1205,4696,1205,0,
 1655061788587.54931640625,,,,,,1187,2541,1187,0,
 1655061788620.72192382812,,,,,,1159,202,1159,0,
 1655061788654.3828125,,,,,,1141,-2199,1141,0,
 1655061788688.01318359375,,,,,,1193,-4492,1193,0,
 1655061788724.54272460937,0.06481933593,-0.01025390625,-1.01599121093,,,,,,,,
 1655061788729.15087890625,,,,,,1243,-6554,1243,0,
 1655061788755.212890625,,,,,,1332,-8277,1332,0,
 1655061788788.84326171875,,,,,,1419,-9553,1419,0,
 1655061788822.62622070312,,,,,,1449,-10329,1449,0,
 1655061788856.01245117187,,,,,,1476,-10552,1476,0,
 1655061788889.70385742187,,,,,,1487,-10238,1487,0,
 1655061788923.63940429687,,,,,,1490,-9409,1490,0,
 1655061788957.1171875,,,,,,1488,-8106,1488,0,
 1655061788990.53393554687,,,,,,1496,-6415,1496,0,
 1655061789070.00170898437,,,,,,1501,-4436,1501,0,
 1655061789091.79125976562,,,,,,1534,-15,1534,0,
 1655061789125.05541992187,,,,,,1509,2156,1509,0,
 1655061789159.021484375,,,,,,1514,4158,1514,0,
 1655061789192.31616210937,,,,,,1511,5854,1511,0,
 1655061789226.25170898437,,,,,,1482,7165,1482,0,
 1655061789260.18725585937,,,,,,1456,8022,1456,0,
 1655061789293.23779296875,,,,,,1429,8378,1429,0,
 1655061789327.50903320312,,,,,,1391,8208,1391,0,
 1655061789333.9482421875,,,,67,100,,,,
 1655061789360.52905273437,,,,,,1359,7540,1359,0,
 1655061789394.06787109375,,,,,,1343,6372,1343,0,
 1655061789427.72875976562,,,,,,1292,4777,1292,0,
 1655061789465.5400390625,,,,,,,,,,68
 1655061789468.28662109375,,,,,,1247,2845,1247,0,
 1655061789494.89794921875,,,,,,1244,697,1244,0,
 1655061789521.17358398437,0.03259277343,-0.02380371093,-1.03723144531,,,,,,,,
 1655061789531.82421875,,,,,,1215,-1581,1215,0,
 1655061789562.2197265625,,,,,,1177,-3836,1177,0,
 1655061789596.49096679687,,,,,,1123,-5964,1123,0,
 1655061789629.38891601562,,,,,,1122,-7796,1122,0,
 1655061789663.01928710937,,,,,,1114,-9258,1114,0,
 1655061789696.89379882812,,,,,,1166,-10208,1166,0,
 1655061789730.4326171875,,,,,,1258,-10580,1258,0,
 1655061789763.91040039062,,,,,,1359,-10323,1359,0,
 1655061789797.54077148437,,,,,,1469,-9428,1469,0,
 1655061789831.2626953125,,,,,,1514,-7945,1514,0,
 1655061789864.89306640625,,,,,,1526,-5948,1526,0,
 1655061789898.58447265625,,,,,,1531,-3546,1531,0,
 1655061789932.55053710937,,,,,,1554,-868,1554,0,
 1655061789999.353515625,,,,,,1519,1885,1519,0,
 1655061790069.87963867187,,,,,,1495,4545,1495,0,
 1655061790100.09204101562,,,,,,1465,8889,1465,0,
 1655061790133.81396484375,,,,,,1461,10202,1461,0,
 1655061790167.35278320312,,,,,,1436,10780,1436,0,
 1655061790201.77661132812,,,,,,1390,10550,1390,0,
 1655061790208.337890625,,,,67,100,,,,
 1655061790234.61352539062,,,,,,1367,9527,1367,0,
 1655061790268.7626953125,,,,,,1342,7763,1342,0,
 1655061790301.87426757812,,,,,,1325,5383,1325,0,
 1655061790321.46655273437,0.05456542968,0.00305175781,-1.00720214843,,,,,,,,
 1655061790335.80981445312,,,,,,1270,2526,1270,0,
 1655061790369.3486328125,,,,,,1220,-610,1220,0,
 1655061790402.76538085937,,,,,,1189,-3797,1189,0,
 1655061790436.609375,,,,,,1150,-6825,1150,0,
 1655061790459.03979492187,,,,,,,,,,68
 1655061790470.30078125,,,,,,1092,-9492,1092,0,
 1655061790503.83959960937,,,,,,1067,-11642,1067,0,
 1655061790537.22583007812,,,,,,1019,-13141,1019,0,
 1655061790570.85620117187,,,,,,964,-13909,964,0,
 1655061790605.09692382812,,,,,,929,-13917,929,0,
 1655061790638.33056640625,,,,,,891,-13222,891,0,
 1655061790671.9609375,,,,,,838,-11894,838,0,
 1655061790705.56079101562,,,,,,836,-10018,836,0,
 1655061790738.82495117187,,,,,,848,-7738,848,0,
 1655061790772.69946289062,,,,,,906,-5182,906,0,
 1655061790806.29931640625,,,,,,980,-2465,980,0,
 1655061790839.99072265625,,,,,,1054,289,1054,0,
 1655061790873.4990234375,,,,,,1083,2976,1083,0,
 1655061790907.25146484375,,,,,,1094,5488,1094,0,
 1655061790941.27856445312,,,,,,1086,7749,1086,0,
 1655061790974.42065429687,,,,,,1078,9713,1078,0,
 1655061791007.95947265625,,,,,,1042,11286,1042,0,
 1655061791071.68017578125,,,,,,1042,12424,1042,0,
 1655061791108.94213867187,,,,,,1024,13237,1024,0,
 1655061791121.69848632812,0.04809570312,-0.00207519531,-1.00988769531,,,,,,,,
 1655061791143.18286132812,,,,,,1016,12811,1016,0,
 1655061791149.6220703125,,,,66,100,,,,
 1655061791176.2333984375,,,,,,994,11804,994,0,
 1655061791209.6806640625,,,,,,996,10242,996,0,
 1655061791243.3720703125,,,,,,922,8137,922,0,
 1655061791277.33813476562,,,,,,915,5595,915,0,
 1655061791310.54125976562,,,,,,883,2713,883,0,
 1655061791344.14111328125,,,,,,810,-396,810,0,
 1655061791377.83251953125,,,,,,793,-3518,793,0,
 1655061791411.43237304687,,,,,,762,-6509,762,0,
 1655061791445.154296875,,,,,,722,-9170,722,0,
 1655061791465.23486328125,,,,,,,,,,68
 1655061791478.69311523437,,,,,,697,-11336,697,0,
 1655061791512.29296875,,,,,,675,-12883,675,0,
 1655061791545.92333984375,,,,,,658,-13717,658,0,
 1655061791579.5537109375,,,,,,610,-13812,610,0,
 1655061791613.58081054687,,,,,,567,-13211,567,0,
 1655061791646.814453125,,,,,,542,-11960,542,0,
 1655061791680.41430664062,,,,,,561,-10169,561,0,
 1655061791714.01416015625,,,,,,593,-7980,593,0,
 1655061791747.64453125,,,,,,697,-5516,697,0,
 1655061791781.42749023437,,,,,,748,-2958,748,0,
 1655061791815.02734375,,,,,,815,-414,815,0,
 1655061791848.81030273437,,,,,,827,1975,827,0,
 1655061791882.41015625,,,,,,839,4144,839,0,
 1655061791915.91845703125,,,,,,834,6026,834,0,
 1655061791924.46337890625,0.04736328125,-0.00390625,-0.98620605468,,,,,,,,
 1655061791949.9150390625,,,,,,812,7574,812,0,
 1655061791982.99609375,,,,,,779,8761,779,0,
 1655061792016.77905273437,,,,,,765,9561,765,0,
 1655061792080.19458007812,,,,,,764,9968,764,0,
 1655061792096.55200195312,,,,66,100,,,,
 1655061792117.517578125,,,,,,764,9487,764,0,
 1655061792151.208984375,,,,,,734,8547,734,0,
 1655061792184.74780273437,,,,,,708,7137,708,0,
 1655061792218.43920898437,,,,,,675,5244,675,0,
 1655061792251.97802734375,,,,,,643,2906,643,0,
 1655061792286.06616210937,,,,,,605,175,605,0,
 1655061792319.23876953125,,,,,,618,-2793,618,0,
 1655061792352.93017578125,,,,,,546,-5899,546,0,
 1655061792386.46899414062,,,,,,544,-8929,544,0,
 1655061792420.16040039062,,,,,,515,-11673,515,0,
 1655061792465.26538085937,,,,,,,,,,68
 1655061792468.04248046875,,,,,,494,-13941,494,0,
 1655061792487.390625,,,,,,461,-15527,461,0,
 1655061792521.02099609375,,,,,,440,-16301,440,0,
 1655061792554.6513671875,,,,,,439,-16143,439,0,
 1655061792588.220703125,,,,,,490,-15030,490,0,
 1655061792622.400390625,,,,,,539,-13018,539,0,
 1655061792655.51196289062,,,,,,646,-10183,646,0,
 1655061792689.20336914062,,,,,,687,-6756,687,0,
 1655061792726.86206054687,0.01843261718,-0.01196289062,-1.00744628906,,,,,,,,
 1655061792730.89038085937,,,,,,729,-2934,729,0,
 1655061792756.49462890625,,,,,,753,1038,753,0,
 1655061792790.09448242187,,,,,,742,4875,742,0,
 1655061792823.63330078125,,,,,,760,8368,760,0,
 1655061792857.56884765625,,,,,,723,11286,723,0,
 1655061792890.8330078125,,,,,,712,13508,712,0,
 1655061792924.79907226562,,,,,,713,14972,713,0,
 1655061792991.81567382812,,,,,,720,15645,720,0,
 1655061793070.70361328125,,,,,,710,15564,710,0,
 1655061793077.14282226562,,,,66,100,,,,
 1655061793096.1552734375,,,,,,695,13525,695,0,
 1655061793126.306640625,,,,,,663,11784,663,0,
 1655061793159.81494140625,,,,,,605,9713,605,0,
 1655061793193.53686523437,,,,,,592,7438,592,0,
 1655061793227.07568359375,,,,,,548,5020,548,0,
 1655061793260.76708984375,,,,,,514,2535,514,0,
 1655061793294.70263671875,,,,,,483,23,483,0,
 1655061793327.966796875,,,,,,423,-2469,423,0,
 1655061793361.5361328125,,,,,,404,-4899,404,0,
 1655061793395.31909179687,,,,,,367,-7244,367,0,
 1655061793428.9189453125,,,,,,356,-9447,356,0,
 1655061793465.11279296875,,,,,,,,,,68
 1655061793467.95092773437,,,,,,401,-11381,401,0,
 1655061793496.02709960937,,,,,,485,-12978,485,0,
 1655061793521.4482421875,0.03967285156,-0.00732421875,-1.00207519531,,,,,,,,
 1655061793532.34301757812,,,,,,556,-14146,556,0,
 1655061793563.28784179687,,,,,,632,-14772,632,0,
 1655061793596.8876953125,,,,,,699,-14778,699,0,
 1655061793630.91479492187,,,,,,727,-14127,727,0,
 1655061793664.30102539062,,,,,,709,-12798,709,0,
 1655061793697.90087890625,,,,,,699,-10834,699,0,
 1655061793731.62280273437,,,,,,699,-8329,699,0,
 1655061793765.16162109375,,,,,,676,-5446,676,0,
 1655061793798.9140625,,,,,,654,-2326,654,0,
 1655061793832.54443359375,,,,,,640,821,640,0,
 1655061793866.08325195312,,,,,,629,3798,629,0,
 1655061793899.59155273437,,,,,,605,6408,605,0,
 1655061793933.09985351562,,,,,,579,8529,579,0,
 1655061793967.18798828125,,,,,,575,10033,575,0,
 1655061794000.39111328125,,,,,,545,10843,545,0,
 1655061794069.97119140625,,,,,,514,10960,514,0,
 1655061794086.35913085937,,,,65,100,,,,
 1655061794101.404296875,,,,,,413,9314,413,0,
 1655061794134.88208007812,,,,,,390,7766,390,0,
 1655061794168.63452148437,,,,,,342,5877,342,0,
 1655061794202.14282226562,,,,,,290,3774,290,0,
 1655061794235.8037109375,,,,,,260,1606,260,0,
 1655061794269.373046875,,,,,,251,-549,251,0,
 1655061794303.46118164062,,,,,,230,-2633,230,0,
 1655061794322.16845703125,0.05261230468,-0.00830078125,-0.99987792968,,,,,,,,
 1655061794337.42724609375,,,,,,163,-4572,163,0,
 1655061794370.23364257812,,,,,,195,-6273,2887,-2692,
 1655061794403.83349609375,,,,,,227,-7722,2901,-2674,
 1655061794437.55541992187,,,,,,309,-8826,2951,-2642,
 1655061794460.53515625,,,,,,,,,,67
 1655061794471.3994140625,,,,,,409,-9552,3019,-2610,
 1655061794504.724609375,,,,,,520,-9829,3098,-2578,
 1655061794538.32446289062,,,,,,610,-9635,3156,-2546,
 1655061794572.04638671875,,,,,,685,-8932,3199,-2514,
 1655061794605.73779296875,,,,,,719,-7725,3201,-2482,
 1655061794639.64282226562,,,,,,739,-6058,3189,-2450,
 1655061794672.99853515625,,,,,,786,-3945,3204,-2418,
 1655061794706.68994140625,,,,,,803,-1514,3189,-2386,
 1655061794740.22875976562,,,,,,808,1104,3162,-2354,
 1655061794774.04223632812,,,,,,846,3796,3168,-2322,
 1655061794807.5810546875,,,,,,863,6375,3153,-2290,
 1655061794841.11987304687,,,,,,899,8661,3157,-2258,
 1655061794874.65869140625,,,,,,905,10486,3131,-2226,
 1655061794908.1669921875,,,,,,895,11705,3089,-2194,
 1655061794941.94995117187,,,,,,900,12233,3062,-2162,
 1655061794976.80102539062,,,,,,901,12014,3031,-2130,
 1655061794983.1181640625,,,,65,100,,,,
 1655061795009.27172851562,,,,,,898,11038,2996,-2098,
 1655061795072.41259765625,,,,,,897,9398,2963,-2066,
 1655061795110.193359375,,,,,,897,4627,2899,-2002,
 1655061795121.45434570312,0.04467773437,-0.00244140625,-1.01184082031,,,,,,,,
 1655061795143.61010742187,,,,,,887,1791,2857,-1970,
 1655061795177.4541015625,,,,,,887,-1100,2825,-1938,
 1655061795210.84033203125,,,,,,880,-3905,2786,-1906,
 1655061795244.50122070312,,,,,,880,-6482,2754,-1874,
 1655061795278.07055664062,,,,,,894,-8702,2736,-1842,
 1655061795312.06713867187,,,,,,869,-10514,2679,-1810,
 1655061795345.33129882812,,,,,,892,-11840,2670,-1778,
 1655061795378.96166992187,,,,,,866,-12684,2612,-1746,
 1655061795412.53100585937,,,,,,929,-12984,2643,-1714,
 1655061795446.34448242187,,,,,,1032,-12760,2714,-1682,
 1655061795466.8828125,,,,,,,,,,66
 1655061795479.79174804687,,,,,,1159,-12033,2809,-1650,
 1655061795513.42211914062,,,,,,1247,-10837,2865,-1618,
 1655061795547.17456054687,,,,,,1343,-9177,2929,-1586,
 1655061795580.80493164062,,,,,,1384,-7156,2938,-1554,
 1655061795614.40478515625,,,,,,1442,-4796,2964,-1522,
 1655061795648.43188476562,,,,,,1443,-2227,2933,-1490,
 1655061795681.45190429687,,,,,,1497,471,2955,-1458,
 1655061795715.26538085937,,,,,,1494,3134,2920,-1426,
 1655061795748.83471679687,,,,,,1521,5608,2915,-1394,
 1655061795782.52612304687,,,,,,1559,7770,2921,-1362,
 1655061795816.03442382812,,,,,,1599,9457,2929,-1330,
 1655061795849.72583007812,,,,,,1630,10545,2928,-1298,
 1655061795883.23413085937,,,,,,1641,10881,2907,-1266,
 1655061795920.46557617187,,,,,,1659,10448,2893,-1234,
 1655061795927.02685546875,,,,65,100,,,,
 1655061795950.58642578125,,,,,,1653,9244,2855,-1202,
 1655061795984.61352539062,,,,,,1677,7315,2847,-1170,
 1655061796017.72509765625,,,,,,1674,4810,2812,-1138,
 1655061796081.2626953125,,,,,,1664,1885,2770,-1106,
 1655061796118.67724609375,,,,,,1657,-4287,2699,-1042,
 1655061796152.21606445312,,,,,,1672,-7054,2682,-1010,
 1655061796185.876953125,,,,,,1655,-9320,2633,-978,
 1655061796219.50732421875,,,,,,1663,-10926,2609,-946,
 1655061796253.1376953125,,,,,,1695,-11742,2609,-914,
 1655061796286.73754882812,,,,,,1685,-11754,2567,-882,
 1655061796320.79516601562,,,,,,1666,-10991,2516,-850,
 1655061796353.9677734375,,,,,,1677,-9534,2495,-818,
 1655061796387.68969726562,,,,,,1665,-7515,2451,-786,
 1655061796421.32006835937,,,,,,1687,-5109,2441,-754,
 1655061796465.38745117187,,,,,,,,,,66
 1655061796468.19506835937,,,,,,1781,-2446,2503,-722,
 1655061796488.611328125,,,,,,1848,270,2538,-690,
 1655061796522.11962890625,,,,,,1958,2927,2616,-658,
 1655061796555.84155273437,,,,,,2025,5371,2651,-626,
 1655061796589.47192382812,,,,,,2088,7551,2682,-594,
 1655061796623.1328125,,,,,,2174,9375,2736,-562,
 1655061796657.068359375,,,,,,2178,10785,2708,-530,
 1655061796690.33251953125,,,,,,2203,11747,2701,-498,
 1655061796727.04516601562,0.05969238281,-0.00708007812,-1.00634765625,,,,,,,,
 1655061796731.13452148437,,,,,,2199,12252,2665,-466,
 1655061796757.59326171875,,,,,,2254,12288,2688,-434,
 1655061796792.2001953125,,,,,,2243,11823,2645,-402,
 1655061796798.5478515625,,,,65,100,,,,
 1655061796824.82348632812,,,,,,2287,10868,2657,-370,
 1655061796858.33178710937,,,,,,2304,9405,2642,-338,
 1655061796892.17578125,,,,,,2334,7432,2640,-306,
 1655061796925.59252929687,,,,,,2338,4980,2612,-274,
 1655061796959.314453125,,,,,,2310,2075,2552,-242,
 1655061796993.25,,,,,,2331,-1173,2541,-210,
 1655061797070.2763671875,,,,,,2315,-4647,2493,-178,
 1655061797094.04956054687,,,,,,2295,-11538,2409,-114,
 1655061797127.283203125,,,,,,2298,-14553,2380,-82,
 1655061797161.18823242187,,,,,,2284,-16989,2334,-50,
 1655061797194.57446289062,,,,,,2303,-18680,2321,-18,
 1655061797228.41845703125,,,,,,2253,-19534,2253,0,
 1655061797262.07934570312,,,,,,2227,-19444,2227,0,
 1655061797295.40454101562,,,,,,2187,-18440,2187,0,
 1655061797329.49267578125,,,,,,2157,-16580,2157,0,
 1655061797362.69580078125,,,,,,2110,-13996,2110,0,
 1655061797396.326171875,,,,,,2083,-10865,2083,0,
 1655061797429.8955078125,,,,,,2086,-7387,2086,0,
 1655061797465.2958984375,,,,,,,,,,65
 1655061797468.31713867187,,,,,,2131,-3779,2131,0,
 1655061797497.36987304687,,,,,,2171,-240,2171,0,
 1655061797521.41772460937,0.03515625,0.02453613281,-1.00756835937,,,,,,,,
 1655061797532.12939453125,,,,,,2246,3071,2246,0,
 1655061797564.60009765625,,,,,,2290,6006,2290,0,
 1655061797598.23046875,,,,,,2325,8453,2325,0,
 1655061797631.70825195312,,,,,,2337,10375,2337,0,
 1655061797665.857421875,,,,,,2322,11707,2322,0,
 1655061797699.27416992187,,,,,,2310,12512,2310,0,
 1655061797732.6298828125,,,,,,2283,12790,2283,0,
 1655061797767.14526367187,,,,,,2262,12617,2262,0,
 1655061797773.5234375,,,,64,100,,,,
 1655061797799.92114257812,,,,,,2268,12019,2268,0,
 1655061797833.42944335937,,,,,,2291,11042,2291,0,
 1655061797867.2734375,,,,,,2286,9691,2286,0,
 1655061797900.65966796875,,,,,,2247,7990,2247,0,
 1655061797934.44262695312,,,,,,2233,5978,2233,0,
 1655061797967.859375,,,,,,2207,3680,2207,0,
 1655061798002.00854492187,,,,,,2174,1163,2174,0,
 1655061798070.58154296875,,,,,,2121,-1502,2121,0,
 1655061798102.59448242187,,,,,,2073,-6741,2073,0,
 1655061798136.01123046875,,,,,,2031,-9031,2031,0,
 1655061798169.6416015625,,,,,,1987,-10901,1987,0,
 1655061798203.30249023437,,,,,,1978,-12200,1978,0,
 1655061798236.90234375,,,,,,1972,-12857,1972,0,
 1655061798270.65478515625,,,,,,1911,-12802,1911,0,
 1655061798304.10205078125,,,,,,1863,-12027,1863,0,
 1655061798321.130859375,0.05419921875,-0.00366210937,-1.00158691406,,,,,,,,
 1655061798338.40380859375,,,,,,1868,-10557,1868,0,
 1655061798371.57641601562,,,,,,1914,-8472,1914,0,
 1655061798405.08471679687,,,,,,1980,-5935,1980,0,
 1655061798438.89819335937,,,,,,2039,-3097,2039,0,
 1655061798459.28393554687,,,,,,,,,,65
 1655061798472.34545898437,,,,,,2125,-146,2125,0,
 1655061798506.00634765625,,,,,,2135,2705,2135,0,
 1655061798539.69775390625,,,,,,2160,5310,2160,0,
 1655061798573.29760742187,,,,,,2138,7480,2138,0,
 1655061798606.80590820312,,,,,,2145,9176,2145,0,
 1655061798640.52783203125,,,,,,2104,10298,2104,0,
 1655061798674.5244140625,,,,,,2114,10864,2114,0,
 1655061798707.69702148437,,,,,,2117,10898,2117,0,
 1655061798742.21240234375,,,,,,2096,10422,2096,0,
 1655061798748.59057617187,,,,63,100,,,,
 1655061798774.92724609375,,,,,,2115,9544,2115,0,
 1655061798808.435546875,,,,,,2096,8295,2096,0,
 1655061798842.18798828125,,,,,,2070,6757,2070,0,
 1655061798875.72680664062,,,,,,2069,4977,2069,0,
 1655061798909.3876953125,,,,,,2031,3022,2031,0,
 1655061798942.92651367187,,,,,,2023,925,2023,0,
 1655061798976.7705078125,,,,,,1970,-1289,1970,0,
 1655061799010.73657226562,,,,,,1944,-3579,1944,0,
 1655061799073.6943359375,,,,,,1922,-5856,1922,0,
 1655061799111.10888671875,,,,,,1846,-10203,1846,0,
 1655061799121.02709960937,0.04516601562,0.00061035156,-1.01171875,,,,,,,,
 1655061799144.76977539062,,,,,,1841,-12067,1841,0,
 1655061799178.30859375,,,,,,1814,-13590,1814,0,
 1655061799211.93896484375,,,,,,1800,-14652,1800,0,
 1655061799245.72192382812,,,,,,1814,-15161,1814,0,
 1655061799279.19970703125,,,,,,1881,-15021,1881,0,
 1655061799312.76904296875,,,,,,1940,-14197,1940,0,
 1655061799346.79614257812,,,,,,2029,-12690,2029,0,
 1655061799380.15185546875,,,,,,2101,-10572,2101,0,
 1655061799413.7822265625,,,,,,2140,-7961,2140,0,
 1655061799448.11450195312,,,,,,2127,-5011,2127,0,
 1655061799468.28662109375,,,,,,,,,,65
 1655061799481.10400390625,,,,,,2147,-1896,2147,0,
 1655061799548.27319335937,,,,,,2127,1197,2127,0,
 1655061799581.96459960937,,,,,,2114,4093,2114,0,
 1655061799615.50341796875,,,,,,2143,6636,2143,0,
 1655061799649.28637695312,,,,,,2127,8649,2127,0,
 1655061799683.28295898437,,,,,,2107,10077,2107,0,
 1655061799716.24194335937,,,,,,2120,10899,2120,0,
 1655061799750.0859375,,,,,,2086,11127,2086,0,
 1655061799784.41821289062,,,,,,2090,10821,2090,0,
 1655061799790.91845703125,,,,63,100,,,,
 1655061799817.19409179687,,,,,,2022,10058,2022,0,
 1655061799850.70239257812,,,,,,2006,8967,2006,0,
 1655061799884.4853515625,,,,,,1949,7635,1949,0,
 1655061799920.80126953125,,,,,,1937,6159,1937,0,
 1655061799951.6240234375,,,,,,1922,4630,1922,0,
 1655061799985.193359375,,,,,,1894,3086,1894,0,
 1655061800072.80932617187,,,,,,1809,24,1856,0,
 1655061800119.89794921875,,,,,,1818,-2950,1818,0,
 1655061800153.43676757812,,,,,,1857,-4353,1857,0,
 1655061800186.91455078125,,,,,,1948,-5640,1948,0,
 1655061800220.6669921875,,,,,,2035,-6782,2035,0,
 1655061800254.29736328125,,,,,,2116,-7658,2116,0,
 1655061800287.8056640625,,,,,,2166,-8248,2166,0,
 1655061800321.58862304687,,,,,,2169,-8470,2169,0,
 1655061800355.49365234375,,,,,,2182,-8250,2182,0,
 1655061800388.81884765625,,,,,,2167,-7585,2167,0,
 1655061800422.44921875,,,,,,2155,-6467,2155,0,
 1655061800465.41796875,,,,,,,,,,65
 1655061800468.43920898437,,,,,,2118,-4954,2118,0,
 1655061800523.21826171875,,,,,,2149,-3078,2149,0,
 1655061800557.03173828125,,,,,,2118,-1001,2118,0,
 1655061800590.57055664062,,,,,,2122,1176,2122,0,
 1655061800624.38403320312,,,,,,2081,3247,2081,0,
 1655061800657.80078125,,,,,,2068,5082,2068,0,
 1655061800691.91943359375,,,,,,2020,6536,2020,0,
 1655061800721.09423828125,0.04736328125,-0.00866699218,-1.00695800781,,,,,,,,
 1655061800758.56982421875,,,,,,1937,7454,1937,0,
 1655061800792.26123046875,,,,,,1911,7832,1911,0,
 1655061800826.80712890625,,,,,,1890,7596,1890,0,
 1655061800833.2158203125,,,,63,100,,,,
 1655061800859.49145507812,,,,,,1842,6781,1842,0,
 1655061800893.15234375,,,,,,1802,5454,1802,0,
 1655061800926.7216796875,,,,,,1767,3715,1767,0,
 1655061800960.26049804687,,,,,,1739,1673,1739,0,
 1655061800993.982421875,,,,,,1711,-534,1711,0,
 1655061801070.67309570312,,,,,,1708,-2781,1708,0,
 1655061801094.9345703125,,,,,,1812,-6840,1812,0,
 1655061801128.44287109375,,,,,,1919,-8419,1919,0,
 1655061801162.04272460937,,,,,,1988,-9607,1988,0,
 1655061801195.61206054687,,,,,,2031,-10345,2031,0,
 1655061801229.24243164062,,,,,,2060,-10603,2060,0,
 1655061801262.9033203125,,,,,,2051,-10405,2051,0,
 1655061801296.716796875,,,,,,2040,-9746,2040,0,
 1655061801330.2861328125,,,,,,2055,-8675,2055,0,
 1655061801364.13012695312,,,,,,2037,-7238,2037,0,
 1655061801397.60791015625,,,,,,2030,-5501,2030,0,
 1655061801431.14672851562,,,,,,2013,-3576,2013,0,
 1655061801465.69262695312,,,,,,,,,,65
 1655061801468.4697265625,,,,,,2024,-1515,2024,0,
 1655061801498.43798828125,,,,,,2002,579,2002,0,
 1655061801521.14306640625,0.05078125,-0.00134277343,-1.01000976562,,,,,,,,
 1655061801532.556640625,,,,,,1989,2631,1989,0,
 1655061801565.66821289062,,,,,,1949,4546,1949,0,
 1655061801599.17651367187,,,,,,1932,6238,1932,0,
 1655061801632.8984375,,,,,,1880,7618,1880,0,
 1655061801666.40673828125,,,,,,1841,8604,1841,0,
 1655061801700.49487304687,,,,,,1820,9144,1820,0,
 1655061801733.57592773437,,,,,,1742,9181,1742,0,
 1655061801768.18286132812,,,,,,1727,8711,1727,0,
 1655061801775.1103515625,,,,63,100,,,,
 1655061801800.8671875,,,,,,1665,7738,1665,0,
 1655061801834.71118164062,,,,,,1634,6298,1634,0,
 1655061801868.06689453125,,,,,,1594,4454,1594,0,
 1655061801901.88037109375,,,,,,1572,2295,1572,0,
 1655061801935.35815429687,,,,,,1520,-74,1520,0,
 1655061801968.98852539062,,,,,,1495,-2539,1495,0,
 1655061802002.61889648437,,,,,,1500,-4958,1500,0,
 1655061802070.70361328125,,,,,,1574,-7158,1574,0,
 1655061802103.6015625,,,,,,1721,-10455,1721,0,
 1655061802137.07934570312,,,,,,1780,-11326,1780,0,
 1655061802170.83178710937,,,,,,1837,-11571,1837,0,
 1655061802204.46215820312,,,,,,1860,-11173,1860,0,
 1655061802237.90942382812,,,,,,1839,-10195,1839,0,
 1655061802271.72290039062,,,,,,1826,-8632,1826,0,
 1655061802305.32275390625,,,,,,1807,-6605,1807,0,
 1655061802321.43603515625,0.04260253906,0.00866699218,-1.01184082031,,,,,,,,
 1655061802339.01416015625,,,,,,1820,-4226,1820,0,
 1655061802372.85815429687,,,,,,1817,-1638,1817,0,
 1655061802406.27490234375,,,,,,1816,1014,1816,0,
 1655061802439.60009765625,,,,,,1789,3516,1789,0,
 1655061802460.35205078125,,,,,,,,,,65
 1655061802473.474609375,,,,,,1778,5743,1778,0,
 1655061802507.19653320312,,,,,,1741,7523,1741,0,
 1655061802540.70483398437,,,,,,1708,8778,1708,0,
 1655061802574.36572265625,,,,,,1675,9429,1675,0,
 1655061802608.66748046875,,,,,,1635,9409,1635,0,
 1655061802615.59497070312,,,,63,100,,,,
 1655061802641.47387695312,,,,,,1601,8755,1601,0,
 1655061802675.19580078125,,,,,,1556,7487,1556,0,
 1655061802709.22290039062,,,,,,1523,5723,1523,0,
 1655061802742.45654296875,,,,,,1483,3514,1483,0,
 1655061802775.90380859375,,,,,,1432,1028,1432,0,
 1655061802809.7783203125,,,,,,1395,-1621,1395,0,
 1655061802843.40869140625,,,,,,1367,-4258,1367,0,
 1655061802876.85595703125,,,,,,1329,-6757,1329,0,
 1655061802910.42529296875,,,,,,1288,-8971,1288,0,
 1655061802944.11669921875,,,,,,1254,-10748,1254,0,
 1655061802977.7470703125,,,,,,1236,-12018,1236,0,
 1655061803011.34692382812,,,,,,1268,-12652,1268,0,
 1655061803074.73193359375,,,,,,1360,-12605,1360,0,
 1655061803112.146484375,,,,,,1505,-10471,1505,0,
 1655061803120.99658203125,0.04296875,-0.00280761718,-1.00268554687,,,,,,,,
 1655061803146.26513671875,,,,,,1525,-8474,1525,0,
 1655061803179.6513671875,,,,,,1575,-5970,1575,0,
 1655061803213.00708007812,,,,,,1568,-3096,1568,0,
 1655061803246.85107421875,,,,,,1562,-12,1562,0,
 1655061803280.51196289062,,,,,,1528,3083,1528,0,
 1655061803313.89819335937,,,,,,1523,6014,1523,0,
 1655061803347.83374023437,,,,,,1519,8577,1519,0,
 1655061803381.76928710937,,,,,,1507,10592,1507,0,
 1655061803415.06396484375,,,,,,1512,11908,1512,0,
 1655061803448.4501953125,,,,,,1504,12407,1504,0,
 1655061803469.17163085937,,,,,,,,,,64
 1655061803483.02661132812,,,,,,1466,12038,1466,0,
 1655061803489.77099609375,,,,64,100,,,,
 1655061803515.80249023437,,,,,,1430,10806,1430,0,
 1655061803549.5244140625,,,,,,1415,8799,1415,0,
 1655061803583.03271484375,,,,,,1370,6135,1370,0,
 1655061803616.81567382812,,,,,,1333,2994,1333,0,
 1655061803650.232421875,,,,,,1270,-419,1270,0,
 1655061803683.74072265625,,,,,,1240,-3861,1240,0,
 1655061803717.92041015625,,,,,,1211,-7108,1211,0,
 1655061803751.03198242187,,,,,,1187,-9936,1187,0,
 1655061803784.6318359375,,,,,,1136,-12188,1136,0,
 1655061803818.26220703125,,,,,,1125,-13725,1125,0,
 1655061803851.92309570312,,,,,,1104,-14480,1104,0,
 1655061803885.52294921875,,,,,,1077,-14426,1077,0,
 1655061803922.72387695312,,,,,,1064,-13602,1064,0,
 1655061803952.93627929687,,,,,,1082,-12105,1082,0,
 1655061803986.35302734375,,,,,,1147,-10052,1147,0,
 1655061804073.41967773437,,,,,,1234,-7586,1234,0,
 1655061804120.84399414062,,,,,,1385,691,1385,0,
 1655061804154.44384765625,,,,,,1357,3279,1357,0,
 1655061804188.1962890625,,,,,,1338,5602,1338,0,
 1655061804221.70458984375,,,,,,1332,7571,1332,0,
 1655061804255.48754882812,,,,,,1303,9149,1303,0,
 1655061804289.11791992187,,,,,,1317,10319,1317,0,
 1655061804322.62622070312,,,,,,1285,11021,1285,0,
 1655061804356.37866210937,,,,,,1296,11246,1296,0,
 1655061804391.13818359375,,,,,,1270,10974,1270,0,
 1655061804397.97412109375,,,,64,100,,,,
 1655061804423.85302734375,,,,,,1274,10220,1274,0,
 1655061804466.11987304687,,,,,,,,,,64
 1655061804468.89697265625,,,,,,1241,8959,1241,0,
 1655061804491.02221679687,,,,,,1200,7244,1200,0,
 1655061804524.46948242187,,,,,,1176,5108,1176,0,
 1655061804558.25244140625,,,,,,1123,2613,1123,0,
 1655061804591.60815429687,,,,,,1095,-160,1095,0,
 1655061804625.17749023437,,,,,,1066,-3078,1066,0,
 1655061804658.80786132812,,,,,,1049,-6004,1049,0,
 1655061804692.65185546875,,,,,,999,-8807,999,0,
 1655061804722.3759765625,0.048828125,-0.00500488281,-1.00268554687,,,,,,,,
 1655061804759.76000976562,,,,,,963,-11272,963,0,
 1655061804793.4208984375,,,,,,974,-13275,974,0,
 1655061804826.990234375,,,,,,1015,-14628,1015,0,
 1655061804860.59008789062,,,,,,1066,-15261,1066,0,
 1655061804894.31201171875,,,,,,1177,-15085,1177,0,
 1655061804927.88134765625,,,,,,1233,-14133,1233,0,
 1655061804961.45068359375,,,,,,1289,-12429,1289,0,
 1655061804995.0810546875,,,,,,1308,-10098,1308,0,
 1655061805070.91723632812,,,,,,1314,-7287,1314,0,
 1655061805095.94165039062,,,,,,1296,-981,1296,0,
 1655061805129.54150390625,,,,,,1286,2153,1286,0,
 1655061805163.20239257812,,,,,,1275,5016,1275,0,
 1655061805196.92431640625,,,,,,1291,7510,1291,0,
 1655061805230.5546875,,,,,,1301,9504,1301,0,
 1655061805264.24609375,,,,,,1267,10930,1267,0,
 1655061805297.87646484375,,,,,,1247,11760,1247,0,
 1655061805331.41528320312,,,,,,1231,12014,1231,0,
 1655061805366.02221679687,,,,,,1209,11716,1209,0,
 1655061805372.888671875,,,,63,100,,,,
 1655061805399.255859375,,,,,,1182,10917,1182,0,
 1655061805432.55053710937,,,,,,1136,9672,1136,0,
 1655061805466.33349609375,,,,,,,,,,65
 1655061805469.2021484375,,,,,,1119,8077,1119,0,
 1655061805499.4755859375,,,,,,1101,6164,1101,0,
 1655061805520.99047851562,0.04382324218,0.00610351562,-1.00354003906,,,,,,,,
 1655061805533.22802734375,,,,,,1076,3997,1076,0,
 1655061805566.64477539062,,,,,,1051,1654,1051,0,
 1655061805600.76342773437,,,,,,1061,-831,1061,0,
 1655061805633.90551757812,,,,,,1128,-3339,1128,0,
 1655061805667.71899414062,,,,,,1210,-5792,1210,0,
 1655061805701.07470703125,,,,,,1291,-8101,1291,0,
 1655061805735.40698242187,,,,,,1370,-10134,1370,0,
 1655061805768.5185546875,,,,,,1403,-11824,1403,0,
 1655061805802.02685546875,,,,,,1407,-13026,1407,0,
 1655061805835.62670898437,,,,,,1412,-13687,1412,0,
 1655061805869.28759765625,,,,,,1393,-13725,1393,0,
 1655061805902.91796875,,,,,,1398,-13126,1398,0,
 1655061805936.4873046875,,,,,,1400,-11886,1400,0,
 1655061805970.11767578125,,,,,,1378,-10075,1378,0,
 1655061806003.83959960937,,,,,,1390,-7750,1390,0,
 1655061806070.642578125,,,,,,1394,-5057,1394,0,
 1655061806104.73071289062,,,,,,1357,801,1357,0,
 1655061806138.33056640625,,,,,,1354,3626,1354,0,
 1655061806171.99145507812,,,,,,1319,6147,1319,0,
 1655061806205.62182617187,,,,,,1272,8225,1272,0,
 1655061806239.2216796875,,,,,,1261,9766,1261,0,
 1655061806272.85205078125,,,,,,1214,10678,1214,0,
 1655061806306.51293945312,,,,,,1211,10974,1211,0,
 1655061806322.29052734375,0.04553222656,-0.00952148437,-1.01098632812,,,,,,,,
 1655061806341.0283203125,,,,,,1164,10613,1164,0,
 1655061806348.04736328125,,,,63,100,,,,
 1655061806373.77368164062,,,,,,1159,9676,1159,0,
 1655061806407.89233398437,,,,,,1185,8227,1185,0,
 1655061806441.06494140625,,,,,,1232,6385,1232,0,
 1655061806463.00708007812,,,,,,,,,,65
 1655061806474.51220703125,,,,,,1310,4237,1310,0,
 1655061806508.08154296875,,,,,,1396,1928,1396,0,
 1655061806541.68139648437,,,,,,1466,-443,1466,0,
 1655061806575.43383789062,,,,,,1518,-2750,1518,0,
 1655061806609.18627929687,,,,,,1540,-4900,1540,0,
 1655061806642.72509765625,,,,,,1545,-6826,1545,0,
 1655061806676.14184570312,,,,,,1537,-8414,1537,0,
 1655061806709.98583984375,,,,,,1514,-9642,1514,0,
 1655061806743.8603515625,,,,,,1507,-10453,1507,0,
 1655061806777.15502929687,,,,,,1497,-10811,1497,0,
 1655061806810.72436523437,,,,,,1483,-10699,1483,0,
 1655061806844.32421875,,,,,,1478,-10122,1478,0,
 1655061806877.92407226562,,,,,,1447,-9113,1447,0,
 1655061806911.67651367187,,,,,,1425,-7680,1425,0,
 1655061806945.30688476562,,,,,,1393,-5887,1393,0,
 1655061806978.75415039062,,,,,,1384,-3785,1384,0,
 1655061807012.56762695312,,,,,,1324,-1516,1324,0,
 1655061807076.1357421875,,,,,,1289,824,1289,0,
 1655061807113.3671875,,,,,,1223,5211,1223,0,
 1655061807122.15625,0.05383300781,-0.00231933593,-0.98413085937,,,,,,,,
 1655061807147.05859375,,,,,,1144,6970,1144,0,
 1655061807180.84155273437,,,,,,1135,8302,1135,0,
 1655061807214.28881835937,,,,,,1085,9078,1085,0,
 1655061807247.94970703125,,,,,,1050,9214,1050,0,
 1655061807282.25146484375,,,,,,1025,8695,1025,0,
 1655061807289.20947265625,,,,63,100,,,,
 1655061807315.36303710937,,,,,,998,7527,998,0,
 1655061807348.77978515625,,,,,,1055,5830,1055,0,
 1655061807382.34912109375,,,,,,1150,3685,1150,0,
 1655061807416.40673828125,,,,,,1231,1258,1231,0,
 1655061807449.60986328125,,,,,,1282,-1317,1282,0,
 1655061807470.02612304687,,,,,,,,,,65
 1655061807483.20971679687,,,,,,1327,-3812,1327,0,
 1655061807517.02319335937,,,,,,1339,-6106,1339,0,
 1655061807550.56201171875,,,,,,1331,-8001,1331,0,
 1655061807583.97875976562,,,,,,1357,-9373,1357,0,
 1655061807617.82275390625,,,,,,1315,-10179,1315,0,
 1655061807651.23950195312,,,,,,1317,-10319,1317,0,
 1655061807684.96142578125,,,,,,1294,-9851,1294,0,
 1655061807718.4697265625,,,,,,1286,-8779,1286,0,
 1655061807752.58837890625,,,,,,1277,-7204,1277,0,
 1655061807785.76098632812,,,,,,1278,-5225,1278,0,
 1655061807819.33032226562,,,,,,1240,-3012,1240,0,
 1655061807853.02172851562,,,,,,1209,-687,1209,0,
 1655061807886.59106445312,,,,,,1168,1594,1168,0,
 1655061807923.36474609375,,,,,,1136,3693,1136,0,
 1655061807953.943359375,,,,,,1095,5460,1095,0,
 1655061807987.54321289062,,,,,,1035,6786,1035,0,
 1655061808071.06982421875,,,,,,1007,7615,1007,0,
 1655061808091.45556640625,,,,63,100,,,,
 1655061808122.09521484375,,,,,,921,6768,921,0,
 1655061808155.90869140625,,,,,,848,5444,848,0,
 1655061808189.35595703125,,,,,,828,3713,828,0,
 1655061808223.01684570312,,,,,,795,1687,795,0,
 1655061808256.5556640625,,,,,,729,-552,729,0,
 1655061808290.39965820312,,,,,,686,-2836,686,0,
 1655061808323.9384765625,,,,,,704,-5002,704,0,
 1655061808357.5078125,,,,,,745,-6883,745,0,
 1655061808391.01611328125,,,,,,819,-8337,819,0,
 1655061808425.19580078125,,,,,,900,-9251,900,0,
 1655061808466.66918945312,,,,,,,,,,64
 1655061808469.62939453125,,,,,,943,-9552,943,0,
 1655061808491.75463867187,,,,,,1002,-9187,1002,0,
 1655061808525.38500976562,,,,,,1002,-8184,1002,0,
 1655061808558.98486328125,,,,,,972,-6619,972,0,
 1655061808592.859375,,,,,,999,-4562,999,0,
 1655061808626.39819335937,,,,,,962,-2219,962,0,
 1655061808659.90649414062,,,,,,951,262,951,0,
 1655061808693.50634765625,,,,,,939,2694,939,0,
 1655061808721.12475585937,0.04479980468,-0.00109863281,-1.01928710937,,,,,,,,
 1655061808761.16381835937,,,,,,905,4869,905,0,
 1655061808794.48901367187,,,,,,876,6621,876,0,
 1655061808828.05834960937,,,,,,868,7799,868,0,
 1655061808861.74975585937,,,,,,839,8311,839,0,
 1655061808895.9599609375,,,,,,786,8097,786,0,
 1655061808902.85693359375,,,,64,100,,,,
 1655061808928.97998046875,,,,,,756,7203,756,0,
 1655061808962.732421875,,,,,,716,5683,716,0,
 1655061808996.11865234375,,,,,,673,3652,673,0,
 1655061809070.85620117187,,,,,,629,1270,629,0,
 1655061809097.34545898437,,,,,,551,-3742,551,0,
 1655061809130.85375976562,,,,,,509,-6006,509,0,
 1655061809164.5146484375,,,,,,463,-7875,463,0,
 1655061809198.14501953125,,,,,,427,-9241,427,0,
 1655061809231.775390625,,,,,,385,-10019,385,0,
 1655061809265.40576171875,,,,,,329,-10209,329,0,
 1655061809299.00561523437,,,,,,299,-9792,299,0,
 1655061809332.39184570312,,,,,,295,-8829,295,0,
 1655061809366.08325195312,,,,,,300,-7386,300,0,
 1655061809399.6220703125,,,,,,374,-5559,374,0,
 1655061809433.74072265625,,,,,,452,-3438,452,0,
 1655061809461.8779296875,,,,,,,,,,64
 1655061809469.72094726562,,,,,,510,-1144,510,0,
 1655061809500.57421875,,,,,,533,1197,533,0,
 1655061809521.17358398437,0.13671875,-0.00891113281,-0.88708496093,,,,,,,,
 1655061809534.08251953125,,,,,,568,3503,568,0,
 1655061809567.77392578125,,,,,,568,5643,568,0,
 1655061809601.31274414062,,,,,,570,7557,570,0,
 1655061809635.15673828125,,,,,,552,9129,552,0,
 1655061809668.63452148437,,,,,,543,10292,543,0,
 1655061809702.234375,,,,,,528,10970,528,0,
 1655061809735.83422851562,,,,,,547,11150,547,0,
 1655061809770.7158203125,,,,,,533,10766,533,0,
 1655061809777.64331054687,,,,64,100,,,,
 1655061809803.30859375,,,,,,505,9814,505,0,
 1655061809836.84741210937,,,,,,454,8316,454,0,
 1655061809870.3251953125,,,,,,438,6328,438,0,
 1655061809903.92504882812,,,,,,375,3917,375,0,
 1655061809937.52490234375,,,,,,347,1190,347,0,
 1655061809971.27734375,,,,,,330,-1709,330,0,
 1655061810004.90771484375,,,,,,290,-4639,290,0,
 1655061810071.34448242187,,,,,,248,-7401,248,0,
 1655061810106.98901367187,,,,,,167,-11818,167,0,
 1655061810139.490234375,,,,,,199,-13138,2832,-2633,
 1655061810173.15112304687,,,,,,231,-13758,2785,-2554,
 1655061810206.72045898437,,,,,,208,-13649,2730,-2522,
 1655061810240.4423828125,,,,,,197,-12835,2687,-2490,
 1655061810273.95068359375,,,,,,168,-11374,2626,-2458,
 1655061810307.76416015625,,,,,,164,-9381,2590,-2426,
 1655061810321.95483398437,0.04125976562,-0.00280761718,-1.02038574218,,,,,,,,
 1655061810341.21142578125,,,,,,153,-6994,2547,-2394,
 1655061810374.81127929687,,,,,,188,-4367,2550,-2362,
 1655061810408.38061523437,,,,,,249,-1655,2579,-2330,
 1655061810442.37719726562,,,,,,348,1008,2646,-2298,
 1655061810463.0986328125,,,,,,,,,,64
 1655061810475.88549804687,,,,,,456,3477,2722,-2266,
 1655061810509.36328125,,,,,,543,5668,2777,-2234,
 1655061810542.74951171875,,,,,,604,7506,2806,-2202,
 1655061810576.6240234375,,,,,,656,8959,2826,-2170,
 1655061810610.10180664062,,,,,,667,9994,2805,-2138,
 1655061810643.640625,,,,,,705,10644,2811,-2106,
 1655061810677.27099609375,,,,,,733,10921,2807,-2074,
 1655061810711.60327148437,,,,,,756,10847,2798,-2042,
 1655061810718.56127929687,,,,64,100,,,,
 1655061810744.53173828125,,,,,,778,10410,2788,-2010,
 1655061810778.58935546875,,,,,,827,9645,2805,-1978,
 1655061810811.94506835937,,,,,,869,8508,2815,-1946,
 1655061810845.39233398437,,,,,,856,7007,2770,-1914,
 1655061810879.17529296875,,,,,,867,5150,2749,-1882,
 1655061810912.86669921875,,,,,,902,2979,2752,-1850,
 1655061810946.4970703125,,,,,,892,505,2710,-1818,
 1655061810980.03588867187,,,,,,885,-2156,2671,-1786,
 1655061811013.84936523437,,,,,,908,-4914,2662,-1754,
 1655061811077.966796875,,,,,,884,-7638,2606,-1722,
 1655061811125.2080078125,0.05310058593,0.00952148437,-0.99597167968,,,,,,,,
 1655061811148.18774414062,,,,,,844,-12284,2502,-1658,
 1655061811181.7265625,,,,,,824,-13893,2450,-1626,
 1655061811215.44848632812,,,,,,835,-14825,2429,-1594,
 1655061811248.95678710937,,,,,,809,-15016,2371,-1562,
 1655061811282.80078125,,,,,,829,-14421,2359,-1530,
 1655061811316.33959960937,,,,,,830,-13066,2328,-1498,
 1655061811349.87841796875,,,,,,845,-11028,2311,-1466,
 1655061811383.38671875,,,,,,892,-8435,2326,-1434,
 1655061811416.89501953125,,,,,,991,-5452,2393,-1402,
 1655061811451.31884765625,,,,,,1072,-2289,2442,-1370,
 1655061811472.22338867187,,,,,,,,,,63
 1655061811484.216796875,,,,,,1180,889,2518,-1338,
 1655061811517.908203125,,,,,,1274,3900,2580,-1306,
 1655061811551.44702148437,,,,,,1324,6571,2598,-1274,
 1655061811585.19946289062,,,,,,1344,8765,2586,-1242,
 1655061811618.70776367187,,,,,,1389,10398,2599,-1210,
 1655061811652.46020507812,,,,,,1405,11441,2583,-1178,
 1655061811686.09057617187,,,,,,1420,11872,2566,-1146,
 1655061811720.20922851562,,,,,,1462,11756,2576,-1114,
 1655061811727.28930664062,,,,64,100,,,,
 1655061811753.16821289062,,,,,,1493,11121,2575,-1082,
 1655061811787.22583007812,,,,,,1526,10037,2576,-1050,
 1655061811820.42895507812,,,,,,1538,8551,2556,-1018,
 1655061811854.02880859375,,,,,,1566,6735,2552,-986,
 1655061811887.59814453125,,,,,,1598,4651,2552,-954,
 1655061811924.158203125,,,,,,1604,2369,2526,-922,
 1655061811955.07250976562,,,,,,1610,-65,2500,-890,
 1655061811988.7333984375,,,,,,1626,-2562,2484,-858,
 1655061812071.130859375,,,,,,1609,-5063,2435,-826,
 1655061812094.9345703125,,,,,,1638,-9566,2400,-762,
 1655061812123.56005859375,,,,,,1644,-11353,2374,-730,
 1655061812156.79370117187,,,,,,1650,-12672,2348,-698,
 1655061812190.48510742187,,,,,,1657,-13435,2323,-666,
 1655061812223.99340820312,,,,,,1667,-13543,2301,-634,
 1655061812257.8984375,,,,,,1676,-12967,2278,-602,
 1655061812291.55932617187,,,,,,1718,-11673,2288,-570,
 1655061812324.94555664062,,,,,,1810,-9680,2348,-538,
 1655061812358.57592773437,,,,,,1954,-7072,2460,-506,
 1655061812391.931640625,,,,,,2053,-4009,2527,-474,
 1655061812425.71459960937,,,,,,2175,-646,2617,-442,
 1655061812466.11987304687,,,,,,,,,,63
 1655061812469.11059570312,,,,,,2221,2785,2631,-410,
 1655061812492.91430664062,,,,,,2271,6083,2649,-378,
 1655061812526.51416015625,,,,,,2292,9049,2638,-346,
 1655061812560.08349609375,,,,,,2293,11481,2607,-314,
 1655061812593.7138671875,,,,,,2353,13274,2635,-282,
 1655061812627.37475585937,,,,,,2351,14267,2601,-250,
 1655061812661.00512695312,,,,,,2403,14477,2621,-218,
 1655061812695.30688476562,,,,,,2454,13885,2640,-186,
 1655061812702.478515625,,,,64,100,,,,
 1655061812721.8876953125,0.05224609375,-0.00061035156,-1.00598144531,,,,,,,,
 1655061812761.98779296875,,,,,,2471,12552,2625,-154,
 1655061812795.83178710937,,,,,,2480,10580,2602,-122,
 1655061812829.1875,,,,,,2518,8119,2608,-90,
 1655061812862.78735351562,,,,,,2503,5297,2561,-58,
 1655061812896.26513671875,,,,,,2527,2282,2553,-26,
 1655061812930.10913085937,,,,,,2529,-788,2529,0,
 1655061812963.8310546875,,,,,,2520,-3794,2520,0,
 1655061812997.36987304687,,,,,,2468,-6641,2468,0,
 1655061813071.43603515625,,,,,,2446,-9233,2446,0,
 1655061813098.474609375,,,,,,2428,-13441,2428,0,
 1655061813132.25756835937,,,,,,2484,-14922,2484,0,
 1655061813165.4912109375,,,,,,2523,-15985,2523,0,
 1655061813199.12158203125,,,,,,2617,-16545,2617,0,
 1655061813232.66040039062,,,,,,2723,-16589,2723,0,
 1655061813266.26025390625,,,,,,2834,-16116,2834,0,
 1655061813299.82958984375,,,,,,2868,-15108,2868,0,
 1655061813333.52099609375,,,,,,2893,-13592,2893,0,
 1655061813367.029296875,,,,,,2893,-11619,2893,0,
 1655061813400.69018554687,,,,,,2896,-9238,2896,0,
 1655061813434.19848632812,,,,,,2905,-6518,2905,0,
 1655061813459.37548828125,,,,,,,,,,62
 1655061813470.08715820312,,,,,,2887,-3589,2887,0,
 1655061813501.64233398437,,,,,,2907,-539,2907,0,
 1655061813521.05151367187,0.04089355468,0.02075195312,-1.0126953125,,,,,,,,
 1655061813535.15063476562,,,,,,2901,2488,2901,0,
 1655061813568.75048828125,,,,,,2912,5351,2912,0,
 1655061813602.41137695312,,,,,,2918,7925,2918,0,
 1655061813635.98071289062,,,,,,2917,10081,2917,0,
 1655061813669.6416015625,,,,,,2892,11732,2892,0,
 1655061813703.24145507812,,,,,,2878,12825,2878,0,
 1655061813736.87182617187,,,,,,2825,13304,2825,0,
 1655061813771.41772460937,,,,,,2797,13178,2797,0,
 1655061813778.37573242187,,,,64,100,,,,
 1655061813804.529296875,,,,,,2778,12486,2778,0,
 1655061813837.91552734375,,,,,,2748,11258,2748,0,
 1655061813871.33227539062,,,,,,2721,9583,2721,0,
 1655061813905.115234375,,,,,,2697,7522,2697,0,
 1655061813938.71508789062,,,,,,2674,5175,2674,0,
 1655061813972.40649414062,,,,,,2726,2671,2726,0,
 1655061814006.03686523437,,,,,,2812,115,2812,0,
 1655061814071.64965820312,,,,,,2943,-2379,2943,0,
 1655061814106.83642578125,,,,,,3129,-6735,3129,0,
 1655061814141.0771484375,,,,,,3170,-8386,3170,0,
 1655061814174.21923828125,,,,,,3168,-9596,3168,0,
 1655061814207.78857421875,,,,,,3189,-10301,3189,0,
 1655061814241.4189453125,,,,,,3167,-10476,3167,0,
 1655061814274.80517578125,,,,,,3145,-10107,3145,0,
 1655061814308.52709960937,,,,,,3174,-9218,3174,0,
 1655061814322.107421875,0.03979492187,-0.00036621093,-1.00915527343,,,,,,,,
 1655061814342.03540039062,,,,,,3168,-7884,3168,0,
 1655061814375.818359375,,,,,,3174,-6190,3174,0,
 1655061814409.35717773437,,,,,,3168,-4252,3168,0,
 1655061814442.68237304687,,,,,,3136,-2168,3136,0,
 1655061814463.89208984375,,,,,,,,,,62
 1655061814476.892578125,,,,,,3113,-66,3113,0,
 1655061814510.24829101562,,,,,,3100,1927,3100,0,
 1655061814543.84814453125,,,,,,3061,3715,3061,0,
 1655061814577.6005859375,,,,,,3015,5152,3015,0,
 1655061814611.0478515625,,,,,,2998,6208,2998,0,
 1655061814644.67822265625,,,,,,2946,6778,2946,0,
 1655061814678.33911132812,,,,,,2942,6880,2942,0,
 1655061814712.64086914062,,,,,,2917,6488,2917,0,
 1655061814719.59887695312,,,,64,100,,,,
 1655061814745.8134765625,,,,,,2886,5644,2886,0,
 1655061814779.2607421875,,,,,,2878,4384,2878,0,
 1655061814813.47094726562,,,,,,2864,2786,2864,0,
 1655061814846.55200195312,,,,,,2941,958,2941,0,
 1655061814880.212890625,,,,,,3030,-1028,3030,0,
 1655061814913.87377929687,,,,,,3155,-3055,3155,0,
 1655061814947.41259765625,,,,,,3270,-5030,3270,0,
 1655061814981.13452148437,,,,,,3346,-6868,3346,0,
 1655061815014.64282226562,,,,,,3383,-8500,3383,0,
 1655061815079.00439453125,,,,,,3423,-9818,3423,0,
 1655061815115.80859375,,,,,,3426,-11297,3426,0,
 1655061815124.62817382812,0.041015625,0.0029296875,-1.0078125,,,,,,,,
 1655061815149.53051757812,,,,,,3407,-11360,3407,0,
 1655061815182.703125,,,,,,3418,-10939,3418,0,
 1655061815216.39453125,,,,,,3416,-10041,3416,0,
 1655061815249.841796875,,,,,,3420,-8699,3420,0,
 1655061815283.80786132812,,,,,,3441,-6947,3441,0,
 1655061815317.07202148437,,,,,,3416,-4878,3416,0,
 1655061815351.0380859375,,,,,,3381,-2586,3381,0,
 1655061815384.63793945312,,,,,,3338,-202,3338,0,
 1655061815418.26831054687,,,,,,3330,2175,3330,0,
 1655061815451.56298828125,,,,,,3282,4385,3282,0,
 1655061815472.46752929687,,,,,,,,,,61
 1655061815485.98681640625,,,,,,3252,6318,3252,0,
 1655061815519.09838867187,,,,,,3210,7848,3210,0,
 1655061815552.66772460937,,,,,,3195,8890,3195,0,
 1655061815586.11499023437,,,,,,3170,9366,3170,0,
 1655061815620.63037109375,,,,,,3150,9237,3150,0,
 1655061815627.61889648437,,,,64,100,,,,
 1655061815653.650390625,,,,,,3111,8506,3111,0,
 1655061815686.94506835937,,,,,,3086,7202,3086,0,
 1655061815720.85009765625,,,,,,3075,5436,3075,0,
 1655061815754.54150390625,,,,,,3153,3339,3153,0,
 1655061815788.2939453125,,,,,,3253,1084,3253,0,
 1655061815821.80224609375,,,,,,3373,-1215,3373,0,
 1655061815855.49365234375,,,,,,3456,-3359,3456,0,
 1655061815889.09350585937,,,,,,3537,-5203,3537,0,
 1655061815925.04321289062,,,,,,3573,-6638,3573,0,
 1655061815956.17114257812,,,,,,3563,-7568,3563,0,
 1655061815989.74047851562,,,,,,3562,-7921,3562,0,
 1655061816071.58862304687,,,,,,3563,-7704,3563,0,
 1655061816095.94165039062,,,,,,3591,-5640,3591,0,
 1655061816124.62817382812,,,,,,3581,-4007,3581,0,
 1655061816158.62475585937,,,,,,3574,-2105,3574,0,
 1655061816191.40063476562,,,,,,3591,-73,3591,0,
 1655061816224.90893554687,,,,,,3550,1926,3550,0,
 1655061816258.630859375,,,,,,3554,3761,3554,0,
 1655061816292.2001953125,,,,,,3524,5287,3524,0,
 1655061816325.86108398437,,,,,,3490,6387,3490,0,
 1655061816359.4609375,,,,,,3461,6967,3461,0,
 1655061816393.06079101562,,,,,,3425,6979,3425,0,
 1655061816427.33203125,,,,,,3403,6402,3403,0,
 1655061816434.412109375,,,,65,100,,,,
 1655061816466.8828125,,,,,,,,,,61
 1655061816469.59887695312,,,,,,3370,5267,3370,0,
 1655061816494.28759765625,,,,,,3332,3622,3332,0,
 1655061816527.82641601562,,,,,,3307,1568,3307,0,
 1655061816561.12109375,,,,,,3268,-784,3268,0,
 1655061816595.14819335937,,,,,,3257,-3291,3257,0,
 1655061816628.59545898437,,,,,,3259,-5818,3259,0,
 1655061816662.13427734375,,,,,,3338,-8156,3338,0,
 1655061816695.82568359375,,,,,,3448,-10153,3448,0,
 1655061816723.56616210937,0.05358886718,0.01477050781,-1.001953125,,,,,,,,
 1655061816733.17919921875,,,,,,3559,-11665,3559,0,
 1655061816763.025390625,,,,,,3654,-12575,3654,0,
 1655061816796.62524414062,,,,,,3663,-12806,3663,0,
 1655061816830.7744140625,,,,,,3700,-12292,3700,0,
 1655061816864.13012695312,,,,,,3672,-11103,3672,0,
 1655061816897.72998046875,,,,,,3657,-9261,3657,0,
 1655061816931.29931640625,,,,,,3647,-6877,3647,0,
 1655061816964.74658203125,,,,,,3675,-4108,3675,0,
 1655061816998.43798828125,,,,,,3682,-1118,3682,0,
 1655061817071.7412109375,,,,,,3688,1902,3688,0,
 1655061817099.39013671875,,,,,,3644,7206,3644,0,
 1655061817133.05102539062,,,,,,3609,9151,3609,0,
 1655061817166.80346679687,,,,,,3604,10461,3604,0,
 1655061817199.88452148437,,,,,,3557,11025,3557,0,
 1655061817234.30834960937,,,,,,3509,10796,3509,0,
 1655061817241.38842773437,,,,65,100,,,,
 1655061817267.17578125,,,,,,3472,9819,3472,0,
 1655061817300.8671875,,,,,,3426,8149,3426,0,
 1655061817334.4365234375,,,,,,3401,5894,3401,0,
 1655061817368.09741210937,,,,,,3356,3196,3356,0,
 1655061817401.63623046875,,,,,,3323,205,3323,0,
 1655061817435.35815429687,,,,,,3296,-2905,3296,0,
 1655061817459.52807617187,,,,,,,,,,62
 1655061817470.39233398437,,,,,,3263,-5951,3263,0,
 1655061817503.04614257812,,,,,,3287,-8718,3287,0,
 1655061817520.80737304687,0.04870605468,0.00866699218,-1.01623535156,,,,,,,,
 1655061817536.15771484375,,,,,,3363,-11069,3363,0,
 1655061817569.97119140625,,,,,,3473,-12850,3473,0,
 1655061817603.57104492187,,,,,,3542,-13982,3542,0,
 1655061817637.1708984375,,,,,,3646,-14370,3646,0,
 1655061817670.8623046875,,,,,,3652,-14035,3652,0,
 1655061817704.70629882812,,,,,,3673,-12972,3673,0,
 1655061817738.30615234375,,,,,,3653,-11251,3653,0,
 1655061817771.90600585937,,,,,,3630,-8975,3630,0,
 1655061817805.23120117187,,,,,,3598,-6278,3598,0,
 1655061817839.25830078125,,,,,,3596,-3309,3596,0,
 1655061817872.30883789062,,,,,,3609,-210,3609,0,
 1655061817906.18334960937,,,,,,3585,2802,3585,0,
 1655061817939.96630859375,,,,,,3580,5618,3580,0,
 1655061817973.41357421875,,,,,,3555,8037,3555,0,
 1655061818006.921875,,,,,,3530,9960,3530,0,
 1655061818071.619140625,,,,,,3500,11269,3500,0,
 1655061818108.75903320312,,,,,,3386,11848,3386,0,
 1655061818115.86962890625,,,,65,100,,,,
 1655061818141.38232421875,,,,,,3343,11113,3343,0,
 1655061818175.623046875,,,,,,3288,9735,3288,0,
 1655061818208.61254882812,,,,,,3267,7815,3267,0,
 1655061818242.1513671875,,,,,,3211,5437,3211,0,
 1655061818276.05639648437,,,,,,3196,2719,3196,0,
 1655061818309.412109375,,,,,,3232,-172,3232,0,
 1655061818320.97827148437,0.04296875,0.00207519531,-1.005859375,,,,,,,,
 1655061818343.37817382812,,,,,,3280,-3132,3280,0,
 1655061818376.88647460937,,,,,,3352,-5963,3352,0,
 1655061818410.33374023437,,,,,,3436,-8544,3436,0,
 1655061818444.2998046875,,,,,,3459,-10756,3459,0,
 1655061818466.30297851562,,,,,,,,,,65
 1655061818477.380859375,,,,,,3481,-12479,3481,0,
 1655061818511.560546875,,,,,,3465,-13667,3465,0,
 1655061818544.8857421875,,,,,,3428,-14240,3428,0,
 1655061818578.60766601562,,,,,,3381,-14194,3381,0,
 1655061818612.11596679687,,,,,,3386,-13528,3386,0,
 1655061818645.837890625,,,,,,3377,-12293,3377,0,
 1655061818679.37670898437,,,,,,3360,-10538,3360,0,
 1655061818713.06811523437,,,,,,3353,-8384,3353,0,
 1655061818746.63745117187,,,,,,3323,-5918,3323,0,
 1655061818780.2373046875,,,,,,3302,-3283,3302,0,
 1655061818813.9287109375,,,,,,3285,-611,3285,0,
 1655061818847.95581054687,,,,,,3238,1947,3238,0,
 1655061818881.189453125,,,,,,3193,4294,3193,0,
 1655061818914.72827148437,,,,,,3143,6295,3143,0,
 1655061818948.51123046875,,,,,,3123,7844,3123,0,
 1655061818981.95849609375,,,,,,3063,8870,3063,0,
 1655061819015.80249023437,,,,,,3034,9309,3034,0,
 1655061819081.17114257812,,,,,,3046,9176,3046,0,
 1655061819088.15966796875,,,,65,100,,,,
 1655061819119.07397460937,,,,,,3139,7234,3139,0,
 1655061819125.330078125,0.05200195312,0.009765625,-1.00439453125,,,,,,,,
 1655061819149.98828125,,,,,,3235,5536,3235,0,
 1655061819184.0458984375,,,,,,3304,3491,3304,0,
 1655061819217.21850585937,,,,,,3345,1169,3345,0,
 1655061819250.90991210937,,,,,,3359,-1288,3359,0,
 1655061819284.3876953125,,,,,,3323,-3787,3323,0,
 1655061819318.04858398437,,,,,,3303,-6174,3303,0,
 1655061819351.6484375,,,,,,3279,-8319,3279,0,
 1655061819385.67553710937,,,,,,3268,-10121,3268,0,
 1655061819419.03125,,,,,,3270,-11456,3270,0,
 1655061819466.97436523437,,,,,,,,,,67
 1655061819469.75146484375,,,,,,3273,-12256,3273,0,
 1655061819486.2919921875,,,,,,3267,-12472,3267,0,
 1655061819520.13598632812,,,,,,3244,-12088,3244,0,
 1655061819553.61376953125,,,,,,3205,-11128,3205,0,
 1655061819587.244140625,,,,,,3174,-9629,3174,0,
 1655061819620.99658203125,,,,,,3137,-7665,3137,0,
 1655061819654.53540039062,,,,,,3107,-5326,3107,0,
 1655061819688.01318359375,,,,,,3050,-2773,3050,0,
 1655061819721.67407226562,,,,,,3034,-114,3034,0,
 1655061819755.27392578125,,,,,,2996,2477,2996,0,
 1655061819788.904296875,,,,,,2953,4849,2953,0,
 1655061819822.50415039062,,,,,,2949,6872,2949,0,
 1655061819856.56176757812,,,,,,3005,8439,3005,0,
 1655061819889.94799804687,,,,,,3093,9437,3093,0,
 1655061819926.599609375,0.04052734375,0.00024414062,-1.00451660156,,,,,,,,
 1655061819930.75,,,,,,3204,9805,3204,0,
 1655061819957.7275390625,,,,,,3296,9504,3296,0,
 1655061819964.89916992187,,,,65,100,,,,
 1655061819990.74755859375,,,,,,3346,8556,3346,0,
 1655061820072.01586914062,,,,,,3394,7015,3394,0,
 1655061820124.9638671875,,,,,,3357,-286,3357,0,
 1655061820158.74682617187,,,,,,3325,-3173,3325,0,
 1655061820192.80444335937,,,,,,3332,-6024,3332,0,
 1655061820225.7939453125,,,,,,3342,-8650,3342,0,
 1655061820259.39379882812,,,,,,3341,-10906,3341,0,
 1655061820293.0546875,,,,,,3328,-12641,3328,0,
 1655061820326.68505859375,,,,,,3314,-13736,3314,0,
 1655061820360.28491210937,,,,,,3286,-14126,3286,0,
 1655061820393.884765625,,,,,,3265,-13786,3265,0,
 1655061820427.60668945312,,,,,,3209,-12741,3209,0,
 1655061820466.97436523437,,,,,,,,,,67
 1655061820469.8125,,,,,,3195,-11017,3195,0,
 1655061820495.11157226562,,,,,,3164,-8763,3164,0,
 1655061820529.04711914062,,,,,,3126,-6092,3126,0,
 1655061820562.25024414062,,,,,,3101,-3199,3101,0,
 1655061820595.72802734375,,,,,,3067,-281,3067,0,
 1655061820629.69409179687,,,,,,3096,2505,3096,0,
 1655061820663.01928710937,,,,,,3211,4980,3211,0,
 1655061820696.68017578125,,,,,,3344,7007,3344,0,
 1655061820724.48168945312,0.0341796875,-0.01171875,-1.02111816406,,,,,,,,
 1655061820734.5830078125,,,,,,3444,8423,3444,0,
 1655061820763.97143554687,,,,,,3536,9163,3536,0,
 1655061820797.54077148437,,,,,,3575,9179,3575,0,
 1655061820831.9951171875,,,,,,3592,8484,3592,0,
 1655061820839.0751953125,,,,66,100,,,,
 1655061820865.13720703125,,,,,,3571,7152,3571,0,
 1655061820898.34033203125,,,,,,3580,5316,3580,0,
 1655061820931.970703125,,,,,,3572,3074,3572,0,
 1655061820965.84521484375,,,,,,3596,640,3596,0,
 1655061820999.17041015625,,,,,,3571,-1880,3571,0,
 1655061821071.71069335937,,,,,,3590,-4250,3590,0,
 1655061821100.00048828125,,,,,,3543,-8041,3543,0,
 1655061821133.875,,,,,,3520,-9197,3520,0,
 1655061821167.4443359375,,,,,,3484,-9783,3484,0,
 1655061821201.2578125,,,,,,3447,-9746,3447,0,
 1655061821234.43041992187,,,,,,3418,-9117,3418,0,
 1655061821268.21337890625,,,,,,3360,-7972,3360,0,
 1655061821301.7216796875,,,,,,3326,-6431,3326,0,
 1655061821335.291015625,,,,,,3299,-4616,3299,0,
 1655061821368.92138671875,,,,,,3262,-2707,3262,0,
 1655061821402.73486328125,,,,,,3245,-844,3245,0,
 1655061821436.30419921875,,,,,,3241,801,3241,0,
 1655061821459.13134765625,,,,,,,,,,68
 1655061821470.39233398437,,,,,,3287,2118,3287,0,
 1655061821503.65649414062,,,,,,3391,3015,3391,0,
 1655061821521.05151367187,0.04541015625,-0.048828125,-1.0146484375,,,,,,,,
 1655061821537.68359375,,,,,,3525,3441,3525,0,
 1655061821571.58862304687,,,,,,3613,3356,3613,0,
 1655061821578.943359375,,,,67,97,,,,
 1655061821604.51708984375,,,,,,3668,2802,3668,0,
 1655061821638.08642578125,,,,,,3711,1833,3711,0,
 1655061821671.74731445312,,,,,,3707,509,3707,0,
 1655061821705.59130859375,,,,,,3700,-1039,3700,0,
 1655061821739.00805664062,,,,,,3670,-2686,3670,0,
 1655061821772.546875,,,,,,3662,-4283,3662,0,
 1655061821806.23828125,,,,,,3674,-5685,3674,0,
 1655061821839.8076171875,,,,,,3675,-6786,3675,0,
 1655061821873.89575195312,,,,,,3655,-7505,3655,0,
 1655061821906.97680664062,,,,,,3661,-7784,3661,0,
 1655061821940.72924804687,,,,,,3639,-7586,3639,0,
 1655061821974.20703125,,,,,,3596,-6941,3596,0,
 1655061822007.7763671875,,,,,,3576,-5851,3576,0,
 1655061822073.05346679687,,,,,,3505,-4417,3505,0,
 1655061822108.69799804687,,,,,,3453,-856,3453,0,
 1655061822142.26733398437,,,,,,3421,976,3421,0,
 1655061822175.92822265625,,,,,,3358,2650,3358,0,
 1655061822210.01635742187,,,,,,3339,4042,3339,0,
 1655061822243.03637695312,,,,,,3286,5005,3286,0,
 1655061822276.94140625,,,,,,3269,5453,3269,0,
 1655061822311.02954101562,,,,,,3213,5295,3213,0,
 1655061822321.71069335937,,,,67,97,,,,
 1655061822326.07470703125,0.05041503906,0.00756835937,-1.00854492187,,,,,,,,
 1655061822344.2021484375,,,,,,3161,4513,3161,0,
 1655061822377.771484375,,,,,,3199,3197,3199,0,
 1655061822411.49340820312,,,,,,3239,1397,3239,0,
 1655061822445.06274414062,,,,,,3354,-701,3354,0,
 1655061822467.55419921875,,,,,,,,,,68
 1655061822478.81518554687,,,,,,3461,-2970,3461,0,
 1655061822512.62866210937,,,,,,3569,-5183,3569,0,
 1655061822546.38110351562,,,,,,3614,-7197,3614,0,
 1655061822579.52319335937,,,,,,3651,-8813,3651,0,
 1655061822613.09252929687,,,,,,3665,-9906,3665,0,
 1655061822646.814453125,,,,,,3635,-10382,3635,0,
 1655061822680.29223632812,,,,,,3629,-10149,3629,0,
 1655061822714.01416015625,,,,,,3603,-9262,3603,0,
 1655061822747.58349609375,,,,,,3616,-7746,3616,0,
 1655061822781.27490234375,,,,,,3603,-5741,3603,0,
 1655061822814.783203125,,,,,,3596,-3395,3596,0,
 1655061822848.68823242187,,,,,,3576,-908,3576,0,
 1655061822882.56274414062,,,,,,3556,1539,3556,0,
 1655061822915.67431640625,,,,,,3489,3733,3489,0,
 1655061822949.57934570312,,,,,,3453,5545,3453,0,
 1655061822982.99609375,,,,,,3420,6818,3420,0,
 1655061823016.5654296875,,,,,,3395,7475,3395,0,
 1655061823082.20874023437,,,,,,3343,7439,3343,0,
 1655061823089.50244140625,,,,67,97,,,,
 1655061823120.935546875,,,,,,3216,5350,3216,0,
 1655061823127.49682617187,0.04455566406,0.01049804687,-0.99780273437,,,,,,,,
 1655061823150.96484375,,,,,,3224,3440,3224,0,
 1655061823184.56469726562,,,,,,3176,1094,3176,0,
 1655061823218.591796875,,,,,,3136,-1553,3136,0,
 1655061823251.76440429687,,,,,,3087,-4318,3087,0,
 1655061823285.6083984375,,,,,,3032,-7046,3032,0,
 1655061823319.23876953125,,,,,,2967,-9564,2967,0,
 1655061823352.68603515625,,,,,,2995,-11671,2995,0,
 1655061823386.49951171875,,,,,,3015,-13231,3015,0,
 1655061823467.37109375,,,,,,,,,,68
 1655061823470.1787109375,,,,,,3202,-14074,3202,0,
 1655061823487.5126953125,,,,,,3298,-14194,3298,0,
 1655061823520.89892578125,,,,,,3342,-13519,3342,0,
 1655061823554.98706054687,,,,,,3388,-12077,3388,0,
 1655061823588.12915039062,,,,,,3387,-9911,3387,0,
 1655061823622.06469726562,,,,,,3362,-7151,3362,0,
 1655061823655.51196289062,,,,,,3344,-3952,3344,0,
 1655061823689.14233398437,,,,,,3340,-505,3340,0,
 1655061823722.77270507812,,,,,,3314,2950,3314,0,
 1655061823756.28100585937,,,,,,3317,6191,3317,0,
 1655061823789.85034179687,,,,,,3305,8958,3305,0,
 1655061823823.60278320312,,,,,,3299,11087,3299,0,
 1655061823857.01953125,,,,,,3255,12381,3255,0,
 1655061823891.26025390625,,,,,,3255,12762,3255,0,
 1655061823927.85083007812,0.03833007812,0.01342773437,-1.00939941406,,,,,,,,
 1655061823932.03173828125,,,,,,3193,12148,3193,0,
 1655061823939.47802734375,,,,67,97,,,,
 1655061823957.849609375,,,,,,3160,10587,3160,0,
 1655061823991.6630859375,,,,,,3136,8207,3136,0,
 1655061824071.86328125,,,,,,3079,5155,3079,0,
 1655061824097.55908203125,,,,,,2984,-2060,2984,0,
 1655061824125.9404296875,,,,,,2970,-5705,2970,0,
 1655061824159.54028320312,,,,,,2921,-9026,2921,0,
 1655061824193.201171875,,,,,,2875,-11797,2875,0,
 1655061824227.22827148437,,,,,,2824,-13872,2824,0,
 1655061824260.55346679687,,,,,,2784,-15125,2784,0,
 1655061824294.30590820312,,,,,,2724,-15525,2724,0,
 1655061824327.87524414062,,,,,,2704,-15081,2704,0,
 1655061824361.68872070312,,,,,,2739,-13841,2739,0,
 1655061824428.6748046875,,,,,,2904,-11886,2904,0,
 1655061824467.18798828125,,,,,,,,,,68
 1655061824470.20922851562,,,,,,3022,-9399,3022,0,
 1655061824495.90502929687,,,,,,3058,-6581,3058,0,
 1655061824529.84057617187,,,,,,3076,-3571,3076,0,
 1655061824563.34887695312,,,,,,3064,-584,3064,0,
 1655061824596.82666015625,,,,,,3063,2269,3063,0,
 1655061824630.42651367187,,,,,,3041,4840,3041,0,
 1655061824664.05688476562,,,,,,3029,7041,3029,0,
 1655061824697.62622070312,,,,,,3020,8786,3020,0,
 1655061824720.6669921875,0.03100585937,-0.05029296875,-1.0068359375,,,,,,,,
 1655061824733.484375,,,,,,3026,10030,3026,0,
 1655061824764.88696289062,,,,,,3040,10725,3040,0,
 1655061824798.5478515625,,,,,,3007,10863,3007,0,
 1655061824832.9716796875,,,,,,2981,10438,2981,0,
 1655061824840.38745117187,,,,68,97,,,,
 1655061824866.02221679687,,,,,,2951,9460,2951,0,
 1655061824900.1103515625,,,,,,2905,7937,2905,0,
 1655061824933.0693359375,,,,,,2853,5928,2853,0,
 1655061824966.48608398437,,,,,,2805,3514,2805,0,
 1655061825000.0859375,,,,,,2766,755,2766,0,
 1655061825072.19897460937,,,,,,2746,-2230,2746,0,
 1655061825101.00756835937,,,,,,2645,-8359,2645,0,
 1655061825134.607421875,,,,,,2613,-11193,2613,0,
 1655061825168.26831054687,,,,,,2597,-13643,2597,0,
 1655061825201.990234375,,,,,,2557,-15570,2557,0,
 1655061825236.01733398437,,,,,,2560,-16816,2560,0,
 1655061825269.46459960937,,,,,,2525,-17325,2525,0,
 1655061825336.51171875,,,,,,2702,-16964,2702,0,
 1655061825370.26416015625,,,,,,2797,-15795,2797,0,
 1655061825403.80297851562,,,,,,2872,-13873,2872,0,
 1655061825437.40283203125,,,,,,2899,-11295,2899,0,
 1655061825459.65014648437,,,,,,,,,,68
 1655061825471.12475585937,,,,,,2884,-8230,2884,0,
 1655061825504.66357421875,,,,,,2860,-4835,2860,0,
 1655061825520.92944335937,0.04321289062,0.01025390625,-1.00720214843,,,,,,,,
 1655061825538.32446289062,,,,,,2837,-1317,2837,0,
 1655061825572.38208007812,,,,,,2820,2136,2820,0,
 1655061825605.85986328125,,,,,,2818,5347,2818,0,
 1655061825639.21557617187,,,,,,2821,8143,2821,0,
 1655061825672.60180664062,,,,,,2825,10418,2825,0,
 1655061825706.32373046875,,,,,,2825,12070,2825,0,
 1655061825739.86254882812,,,,,,2795,13061,2795,0,
 1655061825773.43188476562,,,,,,2792,13400,2792,0,
 1655061825807.8251953125,,,,,,2769,13099,2769,0,
 1655061825815.11889648437,,,,68,97,,,,
 1655061825840.81469726562,,,,,,2729,12188,2729,0,
 1655061825874.32299804687,,,,,,2704,10752,2704,0,
 1655061825908.50268554687,,,,,,2672,8828,2672,0,
 1655061825941.55322265625,,,,,,2647,6521,2647,0,
 1655061825975.09204101562,,,,,,2607,3906,2607,0,
 1655061826008.78344726562,,,,,,2582,1070,2582,0,
 1655061826074.1826171875,,,,,,2556,-1885,2556,0,
 1655061826109.91870117187,,,,,,2683,-7686,2683,0,
 1655061826143.396484375,,,,,,2826,-10281,2826,0,
 1655061826177.087890625,,,,,,2935,-12503,2935,0,
 1655061826210.68774414062,,,,,,3024,-14239,3024,0,
 1655061826244.80639648437,,,,,,3074,-15386,3074,0,
 1655061826277.88745117187,,,,,,3075,-15874,3075,0,
 1655061826311.609375,,,,,,3058,-15648,3058,0,
 1655061826321.10034179687,0.04333496093,0.00915527343,-1.0068359375,,,,,,,,
 1655061826345.1787109375,,,,,,3030,-14701,3030,0,
 1655061826378.80908203125,,,,,,3028,-13076,3028,0,
 1655061826412.439453125,,,,,,3015,-10848,3015,0,
 1655061826445.91723632812,,,,,,3020,-8153,3020,0,
 1655061826466.97436523437,,,,,,,,,,67
 1655061826479.88330078125,,,,,,3028,-5143,3028,0,
 1655061826513.45263671875,,,,,,3051,-2001,3051,0,
 1655061826547.11352539062,,,,,,3034,1088,3034,0,
 1655061826581.11010742187,,,,,,3027,3962,3027,0,
 1655061826614.34375,,,,,,3003,6468,3003,0,
 1655061826647.6689453125,,,,,,2970,8453,2970,0,
 1655061826681.482421875,,,,,,2937,9821,2937,0,
 1655061826714.89916992187,,,,,,2908,10542,2908,0,
 1655061826748.56005859375,,,,,,2854,10591,2854,0,
 1655061826782.83129882812,,,,,,2832,10025,2832,0,
 1655061826790.33862304687,,,,68,97,,,,
 1655061826816.1259765625,,,,,,2812,8894,2812,0,
 1655061826849.5732421875,,,,,,2881,7312,2881,0,
 1655061826883.20361328125,,,,,,2953,5340,2953,0,
 1655061826917.01708984375,,,,,,3098,3122,3098,0,
 1655061826950.18969726562,,,,,,3207,716,3207,0,
 1655061826983.94213867187,,,,,,3288,-1761,3288,0,
 1655061827017.38940429687,,,,,,3329,-4237,3329,0,
 1655061827083.06323242187,,,,,,3350,-6615,3350,0,
 1655061827121.11865234375,,,,,,3308,-10702,3308,0,
 1655061827152.15502929687,,,,,,3312,-12240,3312,0,
 1655061827185.6328125,,,,,,3311,-13348,3311,0,
 1655061827219.26318359375,,,,,,3289,-13965,3289,0,
 1655061827253.1376953125,,,,,,3295,-14025,3295,0,
 1655061827286.55444335937,,,,,,3289,-13507,3289,0,
 1655061827320.33740234375,,,,,,3253,-12430,3253,0,
 1655061827353.75415039062,,,,,,3230,-10784,3230,0,
 1655061827387.75073242187,,,,,,3191,-8645,3191,0,
 1655061827421.228515625,,,,,,3155,-6075,3155,0,
 1655061827467.31005859375,,,,,,,,,,67
 1655061827470.45336914062,,,,,,3083,-3225,3083,0,
 1655061827488.27563476562,,,,,,3065,-223,3065,0,
 1655061827522.05859375,,,,,,2995,2706,2995,0,
 1655061827555.505859375,,,,,,2970,5439,2970,0,
 1655061827589.5634765625,,,,,,2968,7799,2968,0,
 1655061827622.73608398437,,,,,,3023,9639,3023,0,
 1655061827656.42749023437,,,,,,3117,10853,3117,0,
 1655061827689.96630859375,,,,,,3240,11353,3240,0,
 1655061827724.51220703125,,,,,,3355,11120,3355,0,
 1655061827732.01953125,,,,68,97,,,,
 1655061827757.13549804687,,,,,,3428,10152,3428,0,
 1655061827791.07104492187,,,,,,3482,8531,3482,0,
 1655061827824.51831054687,,,,,,3459,6334,3459,0,
 1655061827857.93505859375,,,,,,3469,3743,3469,0,
 1655061827891.74853515625,,,,,,3444,885,3444,0,
 1655061827928.97998046875,0.021484375,0.03149414062,-0.9912109375,,,,,,,,
 1655061827933.00830078125,,,,,,3424,-2047,3424,0,
 1655061827959.03979492187,,,,,,3430,-4853,3430,0,
 1655061827992.67016601562,,,,,,3431,-7402,3431,0,
 1655061828072.38208007812,,,,,,3399,-9531,3399,0,
 1655061828099.05444335937,,,,,,3369,-12158,3369,0,
 1655061828127.1611328125,,,,,,3320,-12568,3320,0,
 1655061828160.88305664062,,,,,,3289,-12318,3289,0,
 1655061828194.421875,,,,,,3249,-11472,3249,0,
 1655061828228.02172851562,,,,,,3198,-10066,3198,0,
 1655061828262.048828125,,,,,,3169,-8203,3169,0,
 1655061828295.251953125,,,,,,3127,-5997,3127,0,
 1655061828328.79077148437,,,,,,3084,-3561,3084,0,
 1655061828362.48217773437,,,,,,3042,-1085,3042,0,
 1655061828396.02099609375,,,,,,3007,1289,3007,0,
 1655061828429.95654296875,,,,,,3013,3391,3013,0,
 1655061828467.52368164062,,,,,,,,,,66
 1655061828470.30078125,,,,,,3061,5075,3061,0,
 1655061828497.06469726562,,,,,,3148,6224,3148,0,
 1655061828530.63403320312,,,,,,3276,6803,3276,0,
 1655061828565.02734375,,,,,,3387,6736,3387,0,
 1655061828572.32104492187,,,,69,97,,,,
 1655061828598.16943359375,,,,,,3437,6017,3437,0,
 1655061828631.64721679687,,,,,,3467,4696,3467,0,
 1655061828665.18603515625,,,,,,3456,2857,3456,0,
 1655061828698.572265625,,,,,,3424,630,3424,0,
 1655061828720.6669921875,0.04406738281,0.02160644531,-0.99975585937,,,,,,,,
 1655061828733.69799804687,,,,,,3429,-1819,3429,0,
 1655061828765.89404296875,,,,,,3429,-4318,3429,0,
 1655061828799.55493164062,,,,,,3393,-6682,3393,0,
 1655061828833.00219726562,,,,,,3380,-8702,3380,0,
 1655061828866.63256835937,,,,,,3380,-10234,3380,0,
 1655061828900.17138671875,,,,,,3347,-11148,3347,0,
 1655061828934.32055664062,,,,,,3301,-11376,3301,0,
 1655061828995.11157226562,,,,,,3269,-10891,3269,0,
 1655061829067.52978515625,,,,,,3172,-8002,3172,0,
 1655061829097.31494140625,,,,,,3077,-3321,3077,0,
 1655061829130.79272460937,,,,,,3019,-755,3019,0,
 1655061829164.69775390625,,,,,,2982,1720,2982,0,
 1655061829198.23657226562,,,,,,2942,3902,2942,0,
 1655061829231.775390625,,,,,,2883,5613,2883,0,
 1655061829265.7109375,,,,,,2857,6742,2857,0,
 1655061829299.06665039062,,,,,,2813,7198,2813,0,
 1655061829333.337890625,,,,,,2759,6904,2759,0,
 1655061829338.953125,,,,70,97,,,,
 1655061829366.296875,,,,,,2738,5935,2738,0,
 1655061829399.8662109375,,,,,,2775,4321,2775,0,
 1655061829433.74072265625,,,,,,2837,2224,2837,0,
 1655061829460.6572265625,,,,,,,,,,65
 1655061829467.43212890625,,,,,,2941,-150,2941,0,
 1655061829500.54370117187,,,,,,3052,-2627,3052,0,
 1655061829520.74633789062,0.05065917968,0.01782226562,-1.01049804687,,,,,,,,
 1655061829534.57080078125,,,,,,3081,-5021,3081,0,
 1655061829567.77392578125,,,,,,3132,-7091,3132,0,
 1655061829601.98413085937,,,,,,3117,-8701,3117,0,
 1655061829635.00415039062,,,,,,3118,-9698,3118,0,
 1655061829668.9091796875,,,,,,3101,-10011,3101,0,
 1655061829702.26489257812,,,,,,3075,-9601,3075,0,
 1655061829736.169921875,,,,,,3061,-8472,3061,0,
 1655061829769.4951171875,,,,,,3043,-6712,3043,0,
 1655061829803.36962890625,,,,,,3019,-4426,3019,0,
 1655061829836.755859375,,,,,,2985,-1821,2985,0,
 1655061829870.75244140625,,,,,,2950,939,2950,0,
 1655061829903.92504882812,,,,,,2923,3604,2923,0,
 1655061829938.37939453125,,,,,,2887,5959,2887,0,
 1655061829971.1552734375,,,,,,2822,7793,2822,0,
 1655061830005.0908203125,,,,,,2782,8983,2782,0,
 1655061830070.30688476562,,,,,,2726,9395,2726,0,
 1655061830082.02563476562,,,,70,90,,,,
 1655061830105.85986328125,,,,,,2643,7745,2643,0,
 1655061830139.52075195312,,,,,,2582,5770,2582,0,
 1655061830173.36474609375,,,,,,2536,3183,2536,0,
 1655061830206.81201171875,,,,,,2503,165,2503,0,
 1655061830240.38134765625,,,,,,2453,-3070,2453,0,
 1655061830274.5,,,,,,2400,-6305,2400,0,
 1655061830307.67260742187,,,,,,2337,-9294,2337,0,
 1655061830322.107421875,0.05004882812,-0.01977539062,-1.0146484375,,,,,,,,
 1655061830341.05883789062,,,,,,2298,-11869,2298,0,
 1655061830374.87231445312,,,,,,2235,-13852,2235,0,
 1655061830408.31958007812,,,,,,2267,-15026,2267,0,
 1655061830442.13305664062,,,,,,2285,-15324,2285,0,
 1655061830461.69482421875,,,,,,,,,,64
 1655061830475.5498046875,,,,,,2369,-14685,2369,0,
 1655061830509.39379882812,,,,,,2433,-13168,2433,0,
 1655061830542.78002929687,,,,,,2501,-10846,2501,0,
 1655061830576.68505859375,,,,,,2527,-7889,2527,0,
 1655061830610.40698242187,,,,,,2528,-4463,2528,0,
 1655061830643.91528320312,,,,,,2501,-822,2501,0,
 1655061830677.27099609375,,,,,,2464,2791,2464,0,
 1655061830711.11499023437,,,,,,2410,6128,2410,0,
 1655061830744.50122070312,,,,,,2410,8996,2410,0,
 1655061830778.49780273437,,,,,,2370,11151,2370,0,
 1655061830811.7314453125,,,,,,2324,12446,2324,0,
 1655061830845.75854492187,,,,,,2306,12782,2306,0,
 1655061830879.69409179687,,,,,,2261,12125,2261,0,
 1655061830885.2177734375,,,,70,90,,,,
 1655061830912.83618164062,,,,,,2225,10502,2225,0,
 1655061830946.58862304687,,,,,,2158,8021,2158,0,
 1655061830980.06640625,,,,,,2111,4866,2111,0,
 1655061831013.57470703125,,,,,,2050,1276,2050,0,
 1655061831072.80932617187,,,,,,1973,-2508,1973,0,
 1655061831114.61840820312,,,,,,1891,-9543,1891,0,
 1655061831122.0341796875,0.05041503906,-0.05407714843,-1.01245117187,,,,,,,,
 1655061831148.18774414062,,,,,,1861,-12303,1861,0,
 1655061831181.81811523437,,,,,,1795,-14244,1795,0,
 1655061831215.41796875,,,,,,1769,-15328,1769,0,
 1655061831248.92626953125,,,,,,1701,-15487,1701,0,
 1655061831282.86181640625,,,,,,1674,-14745,1674,0,
 1655061831316.03442382812,,,,,,1616,-13189,1616,0,
 1655061831349.90893554687,,,,,,1566,-10955,1566,0,
 1655061831383.17309570312,,,,,,1511,-8230,1511,0,
 1655061831417.13916015625,,,,,,1503,-5203,1503,0,
 1655061831462.88500976562,,,,,,,,,,64
 1655061831465.72314453125,,,,,,1522,-2071,1522,0,
 1655061831484.36938476562,,,,,,1571,994,1571,0,
 1655061831517.7861328125,,,,,,1651,3860,1651,0,
 1655061831551.63012695312,,,,,,1708,6406,1708,0,
 1655061831585.046875,,,,,,1763,8562,1763,0,
 1655061831619.470703125,,,,,,1746,10256,1746,0,
 1655061831652.27709960937,,,,,,1734,11472,1734,0,
 1655061831686.12109375,,,,,,1729,12178,1729,0,
 1655061831719.53784179687,,,,,,1694,12385,1694,0,
 1655061831754.08374023437,,,,,,1686,12080,1686,0,
 1655061831759.79052734375,,,,70,90,,,,
 1655061831786.52392578125,,,,,,1663,11282,1663,0,
 1655061831820.70361328125,,,,,,1697,10006,1697,0,
 1655061831853.9677734375,,,,,,1700,8267,1700,0,
 1655061831888.025390625,,,,,,1676,6070,1676,0,
 1655061831924.40234375,0.05029296875,0.01025390625,-1.00305175781,,,,,,,,
 1655061831928.36962890625,,,,,,1657,3498,1657,0,
 1655061831955.5302734375,,,,,,1651,594,1651,0,
 1655061831988.67236328125,,,,,,1591,-2535,1591,0,
 1655061832067.92651367187,,,,,,1549,-5766,1549,0,
 1655061832089.65502929687,,,,,,1479,-11845,1479,0,
 1655061832123.22436523437,,,,,,1440,-14323,1440,0,
 1655061832156.85473632812,,,,,,1380,-16198,1380,0,
 1655061832190.21044921875,,,,,,1336,-17323,1336,0,
 1655061832224.23754882812,,,,,,1299,-17614,1299,0,
 1655061832257.80688476562,,,,,,1254,-17062,1254,0,
 1655061832291.62036132812,,,,,,1229,-15698,1229,0,
 1655061832324.64038085937,,,,,,1168,-13617,1168,0,
 1655061832358.3623046875,,,,,,1154,-10954,1154,0,
 1655061832391.931640625,,,,,,1231,-7861,1231,0,
 1655061832425.59252929687,,,,,,1322,-4539,1322,0,
 1655061832462.82397460937,,,,,,,,,,63
 1655061832465.84521484375,,,,,,1402,-1193,1402,0,
 1655061832492.82275390625,,,,,,1467,1985,1467,0,
 1655061832526.697265625,,,,,,1496,4842,1496,0,
 1655061832559.83935546875,,,,,,1533,7269,1533,0,
 1655061832593.9580078125,,,,,,1540,9185,1540,0,
 1655061832627.71044921875,,,,,,1514,10557,1514,0,
 1655061832661.18823242187,,,,,,1487,11381,1487,0,
 1655061832694.5439453125,,,,,,1483,11707,1483,0,
 1655061832720.85009765625,0.06567382812,0.04125976562,-0.98913574218,,,,,,,,
 1655061832729.97485351562,,,,,,1510,11559,1510,0,
 1655061832735.77319335937,,,,70,90,,,,
 1655061832761.77416992187,,,,,,1490,10987,1490,0,
 1655061832795.64868164062,,,,,,1475,10011,1475,0,
 1655061832828.97387695312,,,,,,1474,8687,1474,0,
 1655061832863.06201171875,,,,,,1439,7015,1439,0,
 1655061832896.38720703125,,,,,,1418,5042,1418,0,
 1655061832930.1396484375,,,,,,1385,2766,1385,0,
 1655061832963.98364257812,,,,,,1336,243,1336,0,
 1655061832997.400390625,,,,,,1335,-2456,1335,0,
 1655061833067.8349609375,,,,,,1296,-5288,1296,0,
 1655061833098.41357421875,,,,,,1251,-10790,1251,0,
 1655061833131.86083984375,,,,,,1216,-13157,1216,0,
 1655061833165.39965820312,,,,,,1180,-15056,1180,0,
 1655061833198.96899414062,,,,,,1167,-16300,1167,0,
 1655061833232.69091796875,,,,,,1160,-16774,1160,0,
 1655061833266.19921875,,,,,,1234,-16369,1234,0,
 1655061833300.31787109375,,,,,,1344,-15071,1344,0,
 1655061833333.337890625,,,,,,1425,-12904,1425,0,
 1655061833367.30395507812,,,,,,1473,-10015,1473,0,
 1655061833400.56811523437,,,,,,1507,-6545,1507,0,
 1655061833434.412109375,,,,,,1549,-2711,1549,0,
 1655061833459.0703125,,,,,,,,,,63
 1655061833467.82885742187,,,,,,1547,1197,1547,0,
 1655061833501.9169921875,,,,,,1527,4946,1527,0,
 1655061833520.59375,0.05517578125,0.04089355468,-0.98547363281,,,,,,,,
 1655061833535.05908203125,,,,,,1517,8292,1517,0,
 1655061833568.62841796875,,,,,,1486,11030,1486,0,
 1655061833602.28930664062,,,,,,1502,13024,1502,0,
 1655061833636.560546875,,,,,,1513,14189,1513,0,
 1655061833669.51953125,,,,,,1511,14509,1511,0,
 1655061833704.27905273437,,,,,,1481,14038,1481,0,
 1655061833709.95532226562,,,,70,85,,,,
 1655061833736.56665039062,,,,,,1492,12869,1492,0,
 1655061833770.65478515625,,,,,,1441,11105,1441,0,
 1655061833804.10205078125,,,,,,1411,8913,1411,0,
 1655061833837.91552734375,,,,,,1393,6435,1393,0,
 1655061833871.45434570312,,,,,,1365,3792,1365,0,
 1655061833905.14575195312,,,,,,1324,1121,1324,0,
 1655061833938.6845703125,,,,,,1278,-1501,1278,0,
 1655061833972.95581054687,,,,,,1260,-3985,1260,0,
 1655061834006.189453125,,,,,,1227,-6300,1227,0,
 1655061834067.89599609375,,,,,,1181,-8425,1181,0,
 1655061834106.8974609375,,,,,,1157,-12001,1157,0,
 1655061834140.40576171875,,,,,,1229,-13345,1229,0,
 1655061834173.97509765625,,,,,,1326,-14312,1326,0,
 1655061834207.7275390625,,,,,,1423,-14869,1423,0,
 1655061834241.20532226562,,,,,,1521,-14939,1521,0,
 1655061834274.92724609375,,,,,,1577,-14482,1577,0,
 1655061834309.13745117187,,,,,,1581,-13465,1581,0,
 1655061834320.7646484375,0.10595703125,0.02746582031,-1.02038574218,,,,,,,,
 1655061834342.4931640625,,,,,,1603,-11896,1603,0,
 1655061834375.60473632812,,,,,,1575,-9824,1575,0,
 1655061834409.44873046875,,,,,,1571,-7324,1571,0,
 1655061834443.14013671875,,,,,,1566,-4508,1566,0,
 1655061834462.18310546875,,,,,,,,,,63
 1655061834477.0146484375,,,,,,1553,-1508,1553,0,
 1655061834510.06518554687,,,,,,1564,1519,1564,0,
 1655061834543.93969726562,,,,,,1556,4398,1556,0,
 1655061834577.29541015625,,,,,,1542,6985,1542,0,
 1655061834611.20043945312,,,,,,1538,9120,1538,0,
 1655061834644.95288085937,,,,,,1493,10672,1493,0,
 1655061834678.46118164062,,,,,,1457,11594,1457,0,
 1655061834711.93896484375,,,,,,1427,11860,1427,0,
 1655061834746.45434570312,,,,,,1389,11468,1389,0,
 1655061834752.06958007812,,,,69,85,,,,
 1655061834779.16918945312,,,,,,1340,10486,1340,0,
 1655061834812.92163085937,,,,,,1314,8998,1314,0,
 1655061834846.49096679687,,,,,,1276,7091,1276,0,
 1655061834880.15185546875,,,,,,1235,4863,1235,0,
 1655061834913.72119140625,,,,,,1192,2424,1192,0,
 1655061834947.56518554687,,,,,,1148,-157,1148,0,
 1655061834981.56176757812,,,,,,1078,-2768,1078,0,
 1655061835014.79541015625,,,,,,1059,-5296,1059,0,
 1655061835074.3046875,,,,,,1076,-7644,1076,0,
 1655061835115.4423828125,,,,,,1220,-11368,1220,0,
 1655061835123.0107421875,0.05578613281,0.05187988281,-1.01159667968,,,,,,,,
 1655061835149.28637695312,,,,,,1315,-12533,1315,0,
 1655061835182.91674804687,,,,,,1339,-13136,1339,0,
 1655061835216.11987304687,,,,,,1364,-13088,1364,0,
 1655061835250.05541992187,,,,,,1366,-12382,1366,0,
 1655061835283.35009765625,,,,,,1361,-11015,1361,0,
 1655061835317.56030273437,,,,,,1342,-9037,1342,0,
 1655061835350.61083984375,,,,,,1326,-6538,1326,0,
 1655061835384.607421875,,,,,,1329,-3650,1329,0,
 1655061835417.84106445312,,,,,,1310,-524,1310,0,
 1655061835463.12915039062,,,,,,,,,,63
 1655061835466.18090820312,,,,,,1284,2622,1284,0,
 1655061835485.0712890625,,,,,,1267,5587,1267,0,
 1655061835519.09838867187,,,,,,1204,8146,1204,0,
 1655061835552.30151367187,,,,,,1168,10125,1168,0,
 1655061835586.32861328125,,,,,,1127,11368,1127,0,
 1655061835619.56225585937,,,,,,1103,11775,1103,0,
 1655061835654.68798828125,,,,,,1034,11306,1034,0,
 1655061835660.3642578125,,,,67,92,,,,
 1655061835686.853515625,,,,,,989,10014,989,0,
 1655061835720.69750976562,,,,,,919,7996,919,0,
 1655061835754.14477539062,,,,,,887,5437,887,0,
 1655061835787.927734375,,,,,,856,2504,856,0,
 1655061835821.46655273437,,,,,,887,-571,887,0,
 1655061835855.28002929687,,,,,,865,-3601,865,0,
 1655061835888.42211914062,,,,,,882,-6362,882,0,
 1655061835920.55712890625,0.08264160156,0.02648925781,-1.01220703125,,,,,,,,
 1655061835955.92700195312,,,,,,910,-8704,910,0,
 1655061835989.61840820312,,,,,,947,-10485,947,0,
 1655061836067.98754882812,,,,,,993,-11644,993,0,
 1655061836090.47900390625,,,,,,1170,-11919,1170,0,
 1655061836123.9873046875,,,,,,1219,-11103,1219,0,
 1655061836157.6787109375,,,,,,1280,-9733,1280,0,
 1655061836191.1259765625,,,,,,1276,-7937,1276,0,
 1655061836225.12255859375,,,,,,1283,-5787,1283,0,
 1655061836258.35620117187,,,,,,1275,-3430,1275,0,
 1655061836292.2001953125,,,,,,1270,-949,1270,0,
 1655061836326.013671875,,,,,,1244,1505,1244,0,
 1655061836359.4609375,,,,,,1229,3862,1229,0,
 1655061836392.84716796875,,,,,,1222,5988,1222,0,
 1655061836426.69116210937,,,,,,1214,7794,1214,0,
 1655061836463.28173828125,,,,,,,,,,63
 1655061836466.05883789062,,,,,,1218,9201,1218,0,
 1655061836493.92138671875,,,,,,1173,10108,1173,0,
 1655061836527.3076171875,,,,,,1155,10485,1155,0,
 1655061836561.91455078125,,,,,,1120,10256,1120,0,
 1655061836567.5908203125,,,,66,100,,,,
 1655061836594.65991210937,,,,,,1082,9407,1082,0,
 1655061836628.44287109375,,,,,,1037,7954,1037,0,
 1655061836662.1953125,,,,,,981,5916,981,0,
 1655061836695.642578125,,,,,,938,3389,938,0,
 1655061836720.85009765625,0.07971191406,0.05383300781,-0.99548339843,,,,,,,,
 1655061836729.4560546875,,,,,,881,489,881,0,
 1655061836762.93383789062,,,,,,829,-2657,829,0,
 1655061836796.50317382812,,,,,,822,-5825,822,0,
 1655061836830.19458007812,,,,,,759,-8880,759,0,
 1655061836863.76391601562,,,,,,724,-11587,724,0,
 1655061836897.39428710937,,,,,,667,-13801,667,0,
 1655061836930.994140625,,,,,,629,-15371,629,0,
 1655061836964.62451171875,,,,,,619,-16161,619,0,
 1655061836998.62109375,,,,,,659,-16125,659,0,
 1655061837067.95703125,,,,,,720,-15256,720,0,
 1655061837099.26806640625,,,,,,845,-11287,845,0,
 1655061837132.80688476562,,,,,,856,-8438,856,0,
 1655061837166.13208007812,,,,,,890,-5208,890,0,
 1655061837199.97607421875,,,,,,859,-1825,859,0,
 1655061837233.3623046875,,,,,,829,1544,829,0,
 1655061837267.35888671875,,,,,,823,4724,823,0,
 1655061837300.59252929687,,,,,,770,7530,770,0,
 1655061837334.83325195312,,,,,,759,9859,759,0,
 1655061837367.82275390625,,,,,,749,11603,749,0,
 1655061837401.697265625,,,,,,737,12735,737,0,
 1655061837435.05297851562,,,,,,717,13204,717,0,
 1655061837459.37548828125,,,,,,,,,,63
 1655061837469.78198242187,,,,,,701,13057,701,0,
 1655061837475.33618164062,,,,66,100,,,,
 1655061837502.4052734375,,,,,,652,12310,652,0,
 1655061837520.74633789062,0.08422851562,0.05725097656,-0.99694824218,,,,,,,,
 1655061837536.18823242187,,,,,,612,11084,612,0,
 1655061837569.69653320312,,,,,,557,9442,557,0,
 1655061837603.44897460937,,,,,,520,7458,520,0,
 1655061837636.89624023437,,,,,,478,5232,478,0,
 1655061837671.1064453125,,,,,,428,2830,428,0,
 1655061837704.24853515625,,,,,,407,386,407,0,
 1655061837737.90942382812,,,,,,361,-2045,361,0,
 1655061837771.4482421875,,,,,,304,-4355,304,0,
 1655061837805.32275390625,,,,,,278,-6436,278,0,
 1655061837838.953125,,,,,,253,-8186,253,0,
 1655061837872.36987304687,,,,,,260,-9523,260,0,
 1655061837905.93920898437,,,,,,283,-10354,283,0,
 1655061837939.75268554687,,,,,,341,-10599,341,0,
 1655061837973.19995117187,,,,,,404,-10235,404,0,
 1655061838007.41015625,,,,,,466,-9227,466,0,
 1655061838068.0791015625,,,,,,506,-7631,506,0,
 1655061838107.72143554687,,,,,,492,-2943,492,0,
 1655061838141.10766601562,,,,,,446,-121,446,0,
 1655061838175.10424804687,,,,,,426,2801,426,0,
 1655061838208.337890625,,,,,,410,5597,410,0,
 1655061838242.18188476562,,,,,,437,8093,437,0,
 1655061838275.56811523437,,,,,,418,10065,418,0,
 1655061838309.412109375,,,,,,423,11343,423,0,
 1655061838321.619140625,0.05883789062,0.03845214843,-1.01574707031,,,,,,,,
 1655061838343.2255859375,,,,,,364,11756,364,0,
 1655061838377.43579101562,,,,,,359,11272,359,0,
 1655061838383.0205078125,,,,65,100,,,,
 1655061838410.05908203125,,,,,,316,9862,316,0,
 1655061838443.99462890625,,,,,,284,7619,284,0,
 1655061838463.03759765625,,,,,,,,,,64
 1655061838477.31982421875,,,,,,257,4659,257,0,
 1655061838511.1943359375,,,,,,213,1159,213,0,
 1655061838545.40454101562,,,,,,186,-2625,186,0,
 1655061838578.48559570312,,,,,,218,-6428,2868,-2650,
 1655061838611.99389648437,,,,,,250,-9989,2827,-2577,
 1655061838645.65478515625,,,,,,251,-13105,2796,-2545,
 1655061838679.529296875,,,,,,270,-15514,2783,-2513,
 1655061838712.91552734375,,,,,,376,-17046,2857,-2481,
 1655061838745.90502929687,,,,,,467,-17619,2916,-2449,
 1655061838780.115234375,,,,,,575,-17201,2992,-2417,
 1655061838813.10473632812,,,,,,668,-15854,3053,-2385,
 1655061838847.498046875,,,,,,754,-13698,3107,-2353,
 1655061838881.0673828125,,,,,,778,-10897,3099,-2321,
 1655061838914.48413085937,,,,,,821,-7663,3110,-2289,
 1655061838948.14501953125,,,,,,830,-4213,3087,-2257,
 1655061838981.71435546875,,,,,,847,-742,3072,-2225,
 1655061839015.8330078125,,,,,,855,2547,3048,-2193,
 1655061839075.525390625,,,,,,893,5517,3054,-2161,
 1655061839119.80639648437,,,,,,966,10145,3063,-2097,
 1655061839124.9638671875,0.07983398437,0.06201171875,-1.01110839843,,,,,,,,
 1655061839149.98828125,,,,,,974,11720,3039,-2065,
 1655061839183.3134765625,,,,,,977,12795,3010,-2033,
 1655061839217.2490234375,,,,,,987,13400,2988,-2001,
 1655061839250.57421875,,,,,,972,13571,2941,-1969,
 1655061839285.15063476562,,,,,,976,13374,2913,-1937,
 1655061839291.01000976562,,,,65,100,,,,
 1655061839317.80444335937,,,,,,957,12826,2862,-1905,
 1655061839352.31982421875,,,,,,964,11954,2837,-1873,
 1655061839385.03466796875,,,,,,965,10753,2806,-1841,
 1655061839418.97021484375,,,,,,959,9235,2768,-1809,
 1655061839463.55639648437,,,,,,,,,,64
 1655061839466.33349609375,,,,,,978,7379,2755,-1777,
 1655061839486.20043945312,,,,,,1062,5243,2807,-1745,
 1655061839519.64770507812,,,,,,1177,2834,2890,-1713,
 1655061839553.4306640625,,,,,,1341,243,3022,-1681,
 1655061839586.93896484375,,,,,,1468,-2479,3117,-1649,
 1655061839620.87451171875,,,,,,1571,-5185,3188,-1617,
 1655061839654.44384765625,,,,,,1668,-7777,3253,-1585,
 1655061839688.318359375,,,,,,1724,-10085,3277,-1553,
 1655061839721.42993164062,,,,,,1756,-11972,3277,-1521,
 1655061839755.18237304687,,,,,,1779,-13344,3268,-1489,
 1655061839788.72119140625,,,,,,1823,-14089,3280,-1457,
 1655061839822.38208007812,,,,,,1867,-14175,3292,-1425,
 1655061839855.95141601562,,,,,,1899,-13572,3292,-1393,
 1655061839889.76489257812,,,,,,1945,-12348,3306,-1361,
 1655061839920.89282226562,0.07861328125,0.06201171875,-1.00598144531,,,,,,,,
 1655061839956.68994140625,,,,,,1975,-10588,3304,-1329,
 1655061839990.41186523437,,,,,,1992,-8408,3289,-1297,
 1655061840068.29272460937,,,,,,1992,-5961,3257,-1265,
 1655061840091.08935546875,,,,,,1997,-872,3198,-1201,
 1655061840124.99438476562,,,,,,1994,1456,3163,-1169,
 1655061840158.35009765625,,,,,,2013,3488,3150,-1137,
 1655061840192.19409179687,,,,,,2003,5123,3108,-1105,
 1655061840225.58032226562,,,,,,2009,6319,3082,-1073,
 1655061840259.57690429687,,,,,,2032,7056,3073,-1041,
 1655061840292.810546875,,,,,,2114,7333,3123,-1009,
 1655061840327.38696289062,,,,,,2263,7219,3240,-977,
 1655061840333.15478515625,,,,65,100,,,,
 1655061840360.4375,,,,,,2454,6762,3399,-945,
 1655061840393.97631835937,,,,,,2612,5972,3525,-913,
 1655061840427.42358398437,,,,,,2751,4931,3632,-881,
 1655061840464.47192382812,,,,,,,,,,65
 1655061840467.79833984375,,,,,,2850,3653,3699,-849,
 1655061840494.71484375,,,,,,2922,2227,3739,-817,
 1655061840528.650390625,,,,,,2972,692,3757,-785,
 1655061840561.94506835937,,,,,,3023,-894,3776,-753,
 1655061840595.69750976562,,,,,,3067,-2479,3788,-721,
 1655061840629.236328125,,,,,,3099,-3988,3788,-689,
 1655061840662.89721679687,,,,,,3147,-5341,3804,-657,
 1655061840696.83276367187,,,,,,3195,-6456,3820,-625,
 1655061840720.45336914062,0.07861328125,0.08435058593,-1.01403808593,,,,,,,,
 1655061840730.40209960937,,,,,,3238,-7245,3831,-593,
 1655061840763.94091796875,,,,,,3233,-7664,3794,-561,
 1655061840797.35766601562,,,,,,3262,-7623,3791,-529,
 1655061840831.20166015625,,,,,,3254,-7096,3751,-497,
 1655061840864.43530273437,,,,,,3285,-6055,3750,-465,
 1655061840898.18774414062,,,,,,3264,-4570,3697,-433,
 1655061840931.7265625,,,,,,3261,-2691,3662,-401,
 1655061840964.77709960937,,,,,,3270,-531,3639,-369,
 1655061840998.865234375,,,,,,3289,1740,3626,-337,
 1655061841068.23168945312,,,,,,3313,3922,3618,-305,
 1655061841100.18359375,,,,,,3295,7166,3536,-241,
 1655061841133.35620117187,,,,,,3305,7907,3514,-209,
 1655061841167.90209960937,,,,,,3348,7905,3525,-177,
 1655061841173.57836914062,,,,67,100,,,,
 1655061841200.55590820312,,,,,,3430,7112,3575,-145,
 1655061841234.49145507812,,,,,,3626,5606,3739,-113,
 1655061841268.67114257812,,,,,,3842,3466,3923,-81,
 1655061841301.93530273437,,,,,,3810,773,1101,2709,
 1655061841335.10791015625,,,,,,3778,-2251,1199,2579,
 1655061841369.37915039062,,,,,,3813,-5331,1266,2547,
 1655061841402.46020507812,,,,,,3814,-8265,1299,2515,
 1655061841436.30419921875,,,,,,3788,-10826,1305,2483,
 1655061841459.52807617187,,,,,,,,,,65
 1655061841469.72094726562,,,,,,3751,-12811,1300,2451,
 1655061841503.47338867187,,,,,,3735,-14074,1316,2419,
 1655061841520.89892578125,0.07861328125,-0.041015625,-1.00708007812,,,,,,,,
 1655061841537.01220703125,,,,,,3732,-14529,1345,2387,
 1655061841570.70361328125,,,,,,3709,-14189,1354,2355,
