 Time,Acc_x,Acc_y,Acc_z,HRM_b,HRM_c,HRM_r,HRM_f,PPG_r,PPG_o,BTHRM
 1655061766452.50122070312,,,,,,6270,2278,3135,0,
 1655061766494.03564453125,,,,,,6302,858,3151,0,
 1655061766504.04541015625,-0.03845214843,-0.11645507812,-1.013671875,,,,,,,,
 1655061766534.65454101562,,,,,,6302,-1017,3151,0,
 1655061766575.79223632812,,,,,,6326,-3094,3163,0,
 1655061766584.33715820312,-0.04504394531,-0.11791992187,-1.0146484375,,,,,,,,
 1655061766617.021484375,,,,,,6334,-5128,3167,0,
 1655061766658.12866210937,,,,,,6358,-6864,3179,0,
 1655061766666.00219726562,-0.04711914062,-0.11450195312,-1.01940917968,,,,,,,,
 1655061766699.35791015625,,,,,,6382,-8096,3191,0,
 1655061766744.00512695312,-0.00842285156,-0.06494140625,-0.93713378906,,,,,,,,
 1655061766781.78588867187,,,,,,6358,-8713,3179,0,
 1655061766825.54809570312,,,,,,6334,-8627,3167,0,
 1655061766851.94580078125,,,,,,,,,,65
 1655061766864.12231445312,,,,,,6318,-7856,3159,0,
 1655061766908.1591796875,0.05871582031,-0.03247070312,-0.92565917968,,,,,,,,
 1655061766912.5537109375,,,,,,6302,-6495,3151,0,
 1655061766946.64184570312,,,,,,6270,-4740,3135,0,
 1655061766990.49560546875,0.00659179687,-0.07458496093,-0.97985839843,,,,,,,,
 1655061766994.92065429687,,,,,,6238,-2830,3119,0,
 1655061767028.85620117187,,,,,,6206,-1027,3103,0,
 1655061767089.49462890625,-0.02087402343,-0.09423828125,-1.00524902343,,,,,,,,
 1655061767152.60498046875,-0.03576660156,-0.10021972656,-1.0107421875,,,,,,,,
 1655061767156.63330078125,,,,,,6110,1236,3055,0,
 1655061767193.37646484375,,,,,,6078,1378,3039,0,
 1655061767223.92456054687,-0.04370117187,-0.10522460937,-1.01232910156,,,,,,,,
 1655061767236.83349609375,,,,,,6038,782,3019,0,
 1655061767241.86889648437,,,,64,100,,,,
 1655061767276.0791015625,,,,,,5998,-523,2999,0,
 1655061767304.12475585937,-0.04541015625,-0.10852050781,-1.01611328125,,,,,,,,
 1655061767317.76611328125,,,,,,5982,-2363,2991,0,
 1655061767358.04931640625,,,,,,6046,-4488,3023,0,
 1655061767383.9892578125,-0.041015625,-0.1142578125,-1.01684570312,,,,,,,,
 1655061767399.46166992187,,,,,,6110,-6633,3055,0,
 1655061767440.3857421875,,,,,,6142,-8534,3071,0,
 1655061767463.88427734375,-0.03991699218,-0.11584472656,-1.02038574218,,,,,,,,
 1655061767482.10327148437,,,,,,6142,-9937,3071,0,
 1655061767522.72216796875,,,,,,6190,-10622,3095,0,
 1655061767544.267578125,-0.04150390625,-0.11352539062,-1.02197265625,,,,,,,,
 1655061767564.19555664062,,,,,,6142,-10521,3071,0,
 1655061767605.08911132812,,,,,,6142,-9597,3071,0,
 1655061767623.94897460937,-0.04223632812,-0.12072753906,-1.02270507812,,,,,,,,
 1655061767646.6845703125,,,,,,6142,-7922,3071,0,
 1655061767687.42553710937,,,,,,6142,-5700,3071,0,
 1655061767704.1796875,-0.04260253906,-0.1240234375,-1.03039550781,,,,,,,,
 1655061767769.853515625,,,,,,6142,-3192,3071,0,
 1655061767784.34936523437,-0.03967285156,-0.11730957031,-1.03393554687,,,,,,,,
 1655061767811.08276367187,,,,,,6142,-691,3071,0,
 1655061767859.54467773437,,,,,,,,,,65
 1655061767865.25146484375,,,,,,6142,1493,3071,0,
 1655061767870.1953125,-0.04345703125,-0.1162109375,-1.029296875,,,,,,,,
 1655061767893.6328125,,,,,,6126,3113,3063,0,
 1655061767934.80102539062,,,,,,6110,3950,3055,0,
 1655061767943.8037109375,-0.04528808593,-0.11779785156,-1.03039550781,,,,,,,,
 1655061767976.45751953125,,,,,,6078,3895,3039,0,
 1655061767981.67602539062,,,,65,100,,,,
 1655061768016.86279296875,,,,,,6062,2976,3031,0,
 1655061768024.736328125,-0.03771972656,-0.11755371093,-1.02770996093,,,,,,,,
 1655061768096.36108398437,,,,,,6014,1320,3007,0,
 1655061768110.91796875,,,,,,6014,-920,3007,0,
 1655061768140.88623046875,,,,,,5982,-3437,2991,0,
 1655061768184.16015625,,,,,,5950,-5899,2975,0,
 1655061768222.70385742187,,,,,,5886,-7997,2943,0,
 1655061768266.64916992187,0.08276367187,-0.04272460937,-0.95129394531,,,,,,,,
 1655061768270.9521484375,,,,,,5878,-9455,2939,0,
 1655061768305.19287109375,,,,,,5870,-10106,2935,0,
 1655061768348.955078125,0.02099609375,-0.08044433593,-0.98559570312,,,,,,,,
 1655061768353.31909179687,,,,,,5918,-9849,2959,0,
 1655061768387.6513671875,,,,,,5950,-8718,2975,0,
 1655061768423.72314453125,-0.01306152343,-0.09594726562,-1.00061035156,,,,,,,,
 1655061768469.62158203125,,,,,,6014,-6815,3007,0,
 1655061768503.95385742187,-0.0341796875,-0.10107421875,-1.00854492187,,,,,,,,
 1655061768551.98852539062,,,,,,5982,-4418,2991,0,
 1655061768583.75732421875,-0.03784179687,-0.10546875,-1.01025390625,,,,,,,,
 1655061768595.84228515625,,,,,,5966,-1797,2983,0,
 1655061768634.44702148437,,,,,,5950,736,2975,0,
 1655061768663.68286132812,-0.03845214843,-0.10766601562,-1.01098632812,,,,,,,,
 1655061768676.19506835937,,,,,,5950,2869,2975,0,
 1655061768716.66137695312,,,,,,5950,4353,2975,0,
 1655061768743.91357421875,-0.03979492187,-0.11596679687,-1.01452636718,,,,,,,,
 1655061768758.31787109375,,,,,,5934,5004,2967,0,
 1655061768799.69970703125,,,,,,5886,4705,2943,0,
 1655061768804.85717773437,,,,66,96,,,,
 1655061768823.71704101562,-0.04772949218,-0.12707519531,-1.01928710937,,,,,,,,
 1655061768855.63842773437,,,,,,,,,,65
 1655061768858.41552734375,,,,,,5870,3499,2935,0,
 1655061768881.36474609375,,,,,,5838,1515,2919,0,
 1655061768903.642578125,-0.05456542968,-0.125,-1.021484375,,,,,,,,
 1655061768923.08227539062,,,,,,5790,-1048,2895,0,
 1655061768964.09790039062,,,,,,5758,-3866,2879,0,
 1655061768983.99536132812,-0.05249023437,-0.12084960937,-1.01928710937,,,,,,,,
 1655061769005.29663085937,,,,,,5742,-6635,2871,0,
 1655061769096.8798828125,-0.05053710937,-0.11791992187,-1.01733398437,,,,,,,,
 1655061769100.93872070312,,,,,,5694,-9068,2847,0,
 1655061769128.52661132812,,,,,,5614,-11994,2807,0,
 1655061769144.67041015625,-0.04858398437,-0.11437988281,-1.0205078125,,,,,,,,
 1655061769170.18310546875,,,,,,5566,-12176,2783,0,
 1655061769210.771484375,,,,,,5590,-11416,2795,0,
 1655061769224.10766601562,-0.04760742187,-0.11389160156,-1.02099609375,,,,,,,,
 1655061769252.18383789062,,,,,,5630,-9791,2815,0,
 1655061769292.98583984375,,,,,,5694,-7488,2847,0,
 1655061769303.63647460937,-0.05346679687,-0.11352539062,-1.02233886718,,,,,,,,
 1655061769334.55078125,,,,,,5718,-4759,2859,0,
 1655061769375.322265625,,,,,,5694,-1911,2847,0,
 1655061769383.77563476562,-0.05407714843,-0.11547851562,-1.03125,,,,,,,,
 1655061769416.55151367187,,,,,,5694,783,2847,0,
 1655061769457.65869140625,,,,,,5678,3068,2839,0,
 1655061769465.41015625,-0.04711914062,-0.11328125,-1.03015136718,,,,,,,,
 1655061769499.04052734375,,,,,,5662,4709,2831,0,
 1655061769542.77221679687,,,,,,5662,5570,2831,0,
 1655061769547.86865234375,-0.154296875,-0.14978027343,-1.14331054687,,,,,,,,
 1655061769581.43798828125,,,,,,5678,5572,2839,0,
 1655061769625.810546875,,,,,,5630,4717,2815,0,
 1655061769630.90698242187,,,,67,96,,,,
 1655061769663.71337890625,,,,,,5630,3135,2815,0,
 1655061769707.56713867187,-0.13610839843,-0.20544433593,-1.14514160156,,,,,,,,
 1655061769711.77856445312,,,,,,5598,954,2799,0,
 1655061769746.08032226562,,,,,,5566,-1619,2783,0,
 1655061769790.361328125,-0.08642578125,-0.15625,-1.07385253906,,,,,,,,
 1655061769794.42016601562,,,,,,5534,-4332,2767,0,
 1655061769828.41674804687,,,,,,5502,-6962,2751,0,
 1655061769852.22045898437,,,,,,,,,,65
 1655061769863.7255859375,-0.06103515625,-0.13330078125,-1.04174804687,,,,,,,,
 1655061769910.57006835937,,,,,,5430,-9292,2715,0,
 1655061769944.68872070312,-0.05249023437,-0.12060546875,-1.03503417968,,,,,,,,
 1655061769992.90649414062,,,,,,5358,-11139,2679,0,
 1655061770023.54614257812,-0.0537109375,-0.11779785156,-1.02880859375,,,,,,,,
 1655061770035.75317382812,,,,,,5342,-12359,2671,0,
 1655061770102.58666992187,,,,,,5374,-12861,2687,0,
 1655061770120.22583007812,,,,,,5454,-12586,2727,0,
 1655061770157.79296875,,,,,,5502,-11568,2751,0,
 1655061770183.7939453125,-0.04711914062,-0.1103515625,-1.02062988281,,,,,,,,
 1655061770199.08325195312,,,,,,5534,-9902,2767,0,
 1655061770239.91577148437,,,,,,5534,-7718,2767,0,
 1655061770263.47534179687,-0.04284667968,-0.11401367187,-1.01904296875,,,,,,,,
 1655061770322.25219726562,,,,,,5534,-5176,2767,0,
 1655061770343.828125,-0.04077148437,-0.11987304687,-1.01098632812,,,,,,,,
 1655061770363.7255859375,,,,,,5534,-2465,2767,0,
 1655061770404.77172851562,,,,,,5534,217,2767,0,
 1655061770423.90625,-0.03674316406,-0.12475585937,-1.00927734375,,,,,,,,
 1655061770446.2451171875,,,,,,5534,2681,2767,0,
 1655061770486.95556640625,,,,,,5534,4782,2767,0,
 1655061770503.43505859375,-0.03491210937,-0.11975097656,-1.013671875,,,,,,,,
 1655061770528.79516601562,,,,,,5526,6365,2763,0,
 1655061770569.2919921875,,,,,,5502,7332,2751,0,
 1655061770584.794921875,-0.03503417968,-0.11840820312,-1.02087402343,,,,,,,,
 1655061770611.40625,,,,,,5470,7617,2735,0,
 1655061770652.33032226562,,,,,,5438,7222,2719,0,
 1655061770657.548828125,,,,66,96,,,,
 1655061770664.20166015625,-0.03198242187,-0.11779785156,-1.02221679687,,,,,,,,
 1655061770693.34594726562,,,,,,5438,6166,2719,0,
 1655061770733.96484375,,,,,,5406,4533,2703,0,
 1655061770743.39477539062,-0.03369140625,-0.111328125,-1.01977539062,,,,,,,,
 1655061770775.52978515625,,,,,,5374,2444,2687,0,
 1655061770816.30126953125,,,,,,5366,42,2683,0,
 1655061770824.1748046875,-0.04064941406,-0.1103515625,-1.0185546875,,,,,,,,
 1655061770859.72778320312,,,,,,,,,,66
 1655061770862.53540039062,,,,,,5342,-2530,2671,0,
 1655061770898.79028320312,,,,,,5310,-5108,2655,0,
 1655061770906.60278320312,0.00085449218,-0.20263671875,-0.95336914062,,,,,,,,
 1655061770940.17211914062,,,,,,5358,-7464,2679,0,
 1655061770983.69018554687,,,,,,5454,-9436,2727,0,
 1655061771022.35595703125,,,,,,5534,-10897,2767,0,
 1655061771101.70166015625,0.13696289062,-0.02124023437,-0.9169921875,,,,,,,,
 1655061771106.06567382812,,,,,,5590,-11775,2795,0,
 1655061771148.72924804687,0.04626464843,-0.06518554687,-0.97583007812,,,,,,,,
 1655061771153.21533203125,,,,,,5630,-11637,2815,0,
 1655061771187.08984375,,,,,,5630,-10670,2815,0,
 1655061771230.88256835937,0.00073242187,-0.08776855468,-1.00219726562,,,,,,,,
 1655061771235.09399414062,,,,,,5630,-9229,2815,0,
 1655061771269.45678710937,,,,,,5686,-7400,2843,0,
 1655061771303.39233398437,-0.02355957031,-0.10241699218,-1.01672363281,,,,,,,,
 1655061771351.5185546875,,,,,,5710,-5358,2855,0,
 1655061771383.47045898437,-0.03186035156,-0.10717773437,-1.02233886718,,,,,,,,
 1655061771395.4638671875,,,,,,5710,-3273,2855,0,
 1655061771434.892578125,,,,,,5694,-1326,2847,0,
 1655061771463.27392578125,-0.03466796875,-0.10632324218,-1.02600097656,,,,,,,,
 1655061771475.57250976562,,,,,,5678,345,2839,0,
 1655061771516.37451171875,,,,,,5630,1607,2815,0,
 1655061771544.51171875,-0.03796386718,-0.10693359375,-1.02880859375,,,,,,,,
 1655061771557.5732421875,,,,,,5630,2387,2815,0,
 1655061771598.68041992187,,,,,,5614,2609,2807,0,
 1655061771623.58276367187,-0.03955078125,-0.10827636718,-1.02490234375,,,,,,,,
 1655061771640.48950195312,,,,,,5598,2267,2799,0,
 1655061771645.89111328125,,,,65,96,,,,
 1655061771681.16943359375,,,,,,5566,1418,2783,0,
 1655061771703.23364257812,-0.03820800781,-0.10363769531,-1.02209472656,,,,,,,,
 1655061771722.33764648437,,,,,,5534,154,2767,0,
 1655061771763.23120117187,,,,,,5502,-1405,2751,0,
 1655061771783.61694335937,-0.03662109375,-0.10571289062,-1.02075195312,,,,,,,,
 1655061771804.79614257812,,,,,,5486,-3114,2743,0,
 1655061771861.89453125,,,,,,,,,,66
 1655061771864.73266601562,,,,,,5502,-4823,2751,0,
 1655061771870.10375976562,-0.0400390625,-0.10668945312,-1.02319335937,,,,,,,,
 1655061771887.31567382812,,,,,,5566,-6356,2783,0,
 1655061771928.1787109375,,,,,,5678,-7545,2839,0,
 1655061771943.193359375,-0.04162597656,-0.10400390625,-1.02746582031,,,,,,,,
 1655061772010.24047851562,,,,,,5758,-8302,2879,0,
 1655061772023.42407226562,-0.04333496093,-0.11108398437,-1.02124023437,,,,,,,,
 1655061772094.4384765625,,,,,,5790,-8550,2895,0,
 1655061772134.2333984375,,,,,,5806,-7399,2903,0,
 1655061772174.85229492187,,,,,,5822,-6081,2911,0,
 1655061772183.12255859375,-0.03930664062,-0.10717773437,-1.01904296875,,,,,,,,
 1655061772216.5087890625,,,,,,5846,-4407,2923,0,
 1655061772257.67700195312,,,,,,5854,-2531,2927,0,
 1655061772265.48950195312,0.03588867187,0.03332519531,-0.95666503906,,,,,,,,
 1655061772299.08935546875,,,,,,5870,-614,2935,0,
 1655061772342.33276367187,,,,,,5846,1130,2923,0,
 1655061772347.30712890625,0.01049804687,0.02697753906,-0.99755859375,,,,,,,,
 1655061772381.15112304687,,,,,,5822,2545,2911,0,
 1655061772424.79125976562,,,,,,5822,3503,2911,0,
 1655061772463.18237304687,,,,,,5790,3894,2895,0,
 1655061772508.95874023437,-0.05908203125,-0.11071777343,-1.05029296875,,,,,,,,
 1655061772513.017578125,,,,,,5758,3673,2879,0,
 1655061772518.32763671875,,,,65,96,,,,
 1655061772545.88500976562,,,,,,5742,2832,2871,0,
 1655061772589.49462890625,-0.05041503906,-0.11315917968,-1.02868652343,,,,,,,,
 1655061772593.64501953125,,,,,,5710,1420,2855,0,
 1655061772628.03833007812,,,,,,5678,-466,2839,0,
 1655061772663.07250976562,-0.04223632812,-0.11328125,-1.02270507812,,,,,,,,
 1655061772710.283203125,,,,,,5614,-2674,2807,0,
 1655061772748.30810546875,-0.04162597656,-0.11645507812,-1.01892089843,,,,,,,,
 1655061772755.5712890625,,,,,,5614,-4965,2807,0,
 1655061772792.6806640625,,,,,,5662,-7117,2831,0,
 1655061772823.22875976562,-0.04333496093,-0.11901855468,-1.01818847656,,,,,,,,
 1655061772835.4052734375,,,,,,5726,-8927,2863,0,
 1655061772855.48583984375,,,,,,,,,,66
 1655061772875.47485351562,,,,,,5790,-10210,2895,0,
 1655061772903.0322265625,-0.04309082031,-0.11596679687,-1.02612304687,,,,,,,,
 1655061772916.03271484375,,,,,,5822,-10854,2911,0,
 1655061772957.7197265625,,,,,,5822,-10788,2911,0,
 1655061772983.29345703125,-0.03894042968,-0.11462402343,-1.02783203125,,,,,,,,
 1655061772998.61328125,,,,,,5822,-9983,2911,0,
 1655061773093.30932617187,-0.03479003906,-0.11291503906,-1.02551269531,,,,,,,,
 1655061773097.33764648437,,,,,,5822,-8522,2911,0,
 1655061773122.54516601562,,,,,,5822,-4236,2911,0,
 1655061773143.9990234375,-0.03698730468,-0.11108398437,-1.02648925781,,,,,,,,
 1655061773163.37768554687,,,,,,5838,-1858,2919,0,
 1655061773204.33227539062,,,,,,5822,389,2911,0,
 1655061773223.37524414062,-0.04016113281,-0.11022949218,-1.02270507812,,,,,,,,
 1655061773286.54663085937,,,,,,5790,2262,2895,0,
 1655061773303.20922851562,-0.04272460937,-0.10668945312,-1.01574707031,,,,,,,,
 1655061773328.05053710937,,,,,,5758,3586,2879,0,
 1655061773368.91357421875,,,,,,5742,4213,2871,0,
 1655061773382.95166015625,-0.0439453125,-0.10913085937,-1.01672363281,,,,,,,,
 1655061773410.99731445312,,,,,,5726,4100,2863,0,
 1655061773416.52099609375,,,,66,96,,,,
 1655061773451.40258789062,,,,,,5678,3209,2839,0,
 1655061773463.18237304687,-0.04650878906,-0.11242675781,-1.01818847656,,,,,,,,
 1655061773492.8759765625,,,,,,5630,1635,2815,0,
 1655061773533.61694335937,,,,,,5622,-433,2811,0,
 1655061773543.22998046875,-0.04357910156,-0.11499023437,-1.02514648437,,,,,,,,
 1655061773575.05981445312,,,,,,5590,-2815,2795,0,
 1655061773615.95336914062,,,,,,5566,-5240,2783,0,
 1655061773625.10864257812,-0.0390625,-0.115234375,-1.03039550781,,,,,,,,
 1655061773657.45727539062,,,,,,5614,-7446,2807,0,
 1655061773698.3203125,,,,,,5678,-9220,2839,0,
 1655061773706.07177734375,-0.06298828125,-0.11633300781,-1.02563476562,,,,,,,,
 1655061773739.9462890625,,,,,,5758,-10352,2879,0,
 1655061773783.525390625,,,,,,5790,-10759,2895,0,
 1655061773821.82495117187,,,,,,5806,-10369,2903,0,
 1655061773851.94580078125,,,,,,,,,,66
 1655061773866.07543945312,0.01342773437,-0.00622558593,-0.8603515625,,,,,,,,
 1655061773870.0732421875,,,,,,5822,-9228,2911,0,
 1655061773904.9853515625,,,,,,5806,-7473,2903,0,
 1655061773948.38134765625,-0.00720214843,-0.05297851562,-0.95153808593,,,,,,,,
 1655061773952.40966796875,,,,,,5806,-5264,2903,0,
 1655061773986.83349609375,,,,,,5822,-2832,2911,0,
 1655061774030.74829101562,-0.01794433593,-0.08203125,-0.99304199218,,,,,,,,
 1655061774034.71557617187,,,,,,5838,-450,2919,0,
 1655061774151.3232421875,,,,,,5806,1619,2903,0,
 1655061774182.939453125,-0.0380859375,-0.11071777343,-1.0224609375,,,,,,,,
 1655061774195.390625,,,,,,5758,3149,2879,0,
 1655061774234.208984375,,,,,,5758,4022,2879,0,
 1655061774262.98706054687,-0.04174804687,-0.11315917968,-1.02294921875,,,,,,,,
 1655061774275.16357421875,,,,,,5710,4101,2855,0,
 1655061774316.97265625,,,,,,5694,3402,2847,0,
 1655061774322.00805664062,,,,66,96,,,,
 1655061774342.79052734375,-0.04345703125,-0.11010742187,-1.02111816406,,,,,,,,
 1655061774357.34741210937,,,,,,5662,1951,2831,0,
 1655061774398.85131835937,,,,,,5630,-95,2815,0,
 1655061774423.0517578125,-0.04321289062,-0.11706542968,-1.02648925781,,,,,,,,
 1655061774439.71435546875,,,,,,5566,-2560,2783,0,
 1655061774480.76049804687,,,,,,5566,-5193,2783,0,
 1655061774503.06884765625,-0.03894042968,-0.11303710937,-1.02795410156,,,,,,,,
 1655061774522.14233398437,,,,,,5614,-7721,2807,0,
 1655061774563.09692382812,,,,,,5694,-9887,2847,0,
 1655061774583.84887695312,-0.03588867187,-0.09753417968,-1.02136230468,,,,,,,,
 1655061774604.47875976562,,,,,,5758,-11499,2879,0,
 1655061774645.43334960937,,,,,,5790,-12405,2895,0,
 1655061774663.13354492187,-0.03125,-0.0986328125,-1.01831054687,,,,,,,,
 1655061774686.4794921875,,,,,,5806,-12502,2903,0,
 1655061774728.2275390625,,,,,,5790,-11799,2895,0,
 1655061774742.93701171875,-0.03332519531,-0.10546875,-1.01684570312,,,,,,,,
 1655061774768.81591796875,,,,,,5790,-10343,2895,0,
 1655061774810.13671875,,,,,,5758,-8267,2879,0,
 1655061774822.64892578125,-0.04052734375,-0.10546875,-1.0068359375,,,,,,,,
 1655061774859.84985351562,,,,,,,,,,67
 1655061774863.115234375,,,,,,5790,-5730,2895,0,
 1655061774892.900390625,,,,,,5806,-2988,2903,0,
 1655061774902.94067382812,-0.04602050781,-0.1044921875,-1.00524902343,,,,,,,,
 1655061774933.51928710937,,,,,,5790,-284,2895,0,
 1655061774974.71801757812,,,,,,5790,2156,2895,0,
 1655061774982.80517578125,-0.04748535156,-0.10717773437,-1.01599121093,,,,,,,,
 1655061775016.13037109375,,,,,,5758,4130,2879,0,
 1655061775098.466796875,-0.08251953125,-0.15222167968,-1.07202148437,,,,,,,,
 1655061775102.83081054687,,,,,,5742,5455,2871,0,
 1655061775143.388671875,,,,,,5678,5776,2839,0,
 1655061775149.03442382812,,,,66,96,,,,
 1655061775180.89477539062,,,,,,5630,4788,2815,0,
 1655061775224.71801757812,,,,,,5614,3100,2807,0,
 1655061775262.95654296875,,,,,,5582,878,2791,0,
 1655061775307.14599609375,-0.10485839843,-0.01281738281,-1.0361328125,,,,,,,,
 1655061775311.2353515625,,,,,,5558,-1699,2779,0,
 1655061775345.56762695312,,,,,,5534,-4404,2767,0,
 1655061775389.482421875,-0.06970214843,-0.06640625,-1.02209472656,,,,,,,,
 1655061775393.48022460937,,,,,,5598,-6995,2799,0,
 1655061775427.96508789062,,,,,,5686,-9258,2843,0,
 1655061775462.78564453125,-0.05859375,-0.09350585937,-1.02795410156,,,,,,,,
 1655061775510.14892578125,,,,,,5782,-11010,2891,0,
 1655061775547.71606445312,-0.05651855468,-0.09680175781,-1.04638671875,,,,,,,,
 1655061775555.16235351562,,,,,,5806,-12121,2903,0,
 1655061775592.7294921875,,,,,,5806,-12499,2903,0,
 1655061775622.69775390625,-0.05346679687,-0.09106445312,-1.05712890625,,,,,,,,
 1655061775635.30151367187,,,,,,5790,-12097,2895,0,
 1655061775675.06591796875,,,,,,5790,-10950,2895,0,
 1655061775702.74536132812,-0.04992675781,-0.095703125,-1.05163574218,,,,,,,,
 1655061775715.98999023437,,,,,,5806,-9148,2903,0,
 1655061775756.97509765625,,,,,,5806,-6861,2903,0,
 1655061775782.48779296875,-0.05236816406,-0.10095214843,-1.03967285156,,,,,,,,
 1655061775798.32641601562,,,,,,5806,-4266,2903,0,
 1655061775839.40307617187,,,,,,5782,-1603,2891,0,
 1655061775864.54956054687,,,,,,,,,,67
 1655061775867.66235351562,-0.05041503906,-0.10339355468,-1.03308105468,,,,,,,,
 1655061775880.60180664062,,,,,,5758,915,2879,0,
 1655061775922.22778320312,,,,,,5742,3090,2871,0,
 1655061775942.8271484375,-0.04333496093,-0.10559082031,-1.02685546875,,,,,,,,
 1655061775963.30444335937,,,,,,5694,4730,2847,0,
 1655061776004.13696289062,,,,,,5678,5706,2839,0,
 1655061776022.6611328125,-0.041015625,-0.1044921875,-1.02502441406,,,,,,,,
 1655061776094.31640625,,,,,,5630,5901,2815,0,
 1655061776128.55712890625,,,,,,5598,5334,2799,0,
 1655061776133.9892578125,,,,66,96,,,,
 1655061776168.93188476562,,,,,,5566,4022,2783,0,
 1655061776183.94653320312,-0.0419921875,-0.10986328125,-1.02478027343,,,,,,,,
 1655061776209.88647460937,,,,,,5534,2127,2767,0,
 1655061776251.1767578125,,,,,,5566,-155,2783,0,
 1655061776262.4072265625,-0.04248046875,-0.10864257812,-1.0146484375,,,,,,,,
 1655061776292.22290039062,,,,,,5662,-2597,2831,0,
 1655061776333.6962890625,,,,,,5758,-4981,2879,0,
 1655061776342.69897460937,-0.04382324218,-0.11010742187,-1.01196289062,,,,,,,,
 1655061776375.078125,,,,,,5822,-7100,2911,0,
 1655061776416.00219726562,,,,,,5854,-8763,2927,0,
 1655061776424.18090820312,-0.07360839843,-0.14306640625,-1.03576660156,,,,,,,,
 1655061776456.92626953125,,,,,,5870,-9784,2935,0,
 1655061776500.84106445312,,,,,,5870,-10096,2935,0,
 1655061776506.24267578125,-0.05419921875,-0.10949707031,-1.02404785156,,,,,,,,
 1655061776539.2626953125,,,,,,5878,-9667,2939,0,
 1655061776583.23852539062,,,,,,5886,-8537,2943,0,
 1655061776621.56860351562,,,,,,5918,-6835,2959,0,
 1655061776665.849609375,0.0888671875,0.0234375,-0.92370605468,,,,,,,,
 1655061776669.84741210937,,,,,,5918,-4757,2959,0,
 1655061776704.27124023437,,,,,,5934,-2508,2967,0,
 1655061776748.18603515625,0.017578125,-0.04431152343,-0.98315429687,,,,,,,,
 1655061776752.275390625,,,,,,5918,-326,2959,0,
 1655061776786.39404296875,,,,,,5886,1533,2943,0,
 1655061776822.49633789062,-0.01049804687,-0.080078125,-1.01196289062,,,,,,,,
 1655061776851.97631835937,,,,,,,,,,68
 1655061776868.82202148437,,,,,,5854,2896,2927,0,
 1655061776903.55102539062,-0.021484375,-0.09680175781,-1.02429199218,,,,,,,,
 1655061776951.03637695312,,,,,,5806,3565,2903,0,
 1655061776982.28637695312,-0.02978515625,-0.10668945312,-1.02172851562,,,,,,,,
 1655061776995.74462890625,,,,,,5758,3477,2879,0,
 1655061777001.23779296875,,,,66,96,,,,
 1655061777033.55590820312,,,,,,5758,2617,2879,0,
 1655061777101.45751953125,-0.02746582031,-0.11437988281,-1.01538085937,,,,,,,,
 1655061777105.88256835937,,,,,,5726,1038,2863,0,
 1655061777142.71728515625,-0.02734375,-0.11389160156,-1.01342773437,,,,,,,,
 1655061777157.85400390625,,,,,,5694,-3539,2847,0,
 1655061777198.53393554687,,,,,,5758,-6076,2879,0,
 1655061777222.24609375,-0.03674316406,-0.11254882812,-1.00720214843,,,,,,,,
 1655061777239.39697265625,,,,,,5854,-8428,2927,0,
 1655061777280.3515625,,,,,,5886,-10378,2943,0,
 1655061777302.568359375,-0.041015625,-0.11303710937,-1.01062011718,,,,,,,,
 1655061777321.79443359375,,,,,,5918,-11739,2959,0,
 1655061777362.81005859375,,,,,,5934,-12337,2967,0,
 1655061777382.58544921875,-0.04418945312,-0.11218261718,-1.0205078125,,,,,,,,
 1655061777404.130859375,,,,,,5934,-12132,2967,0,
 1655061777445.11596679687,,,,,,5918,-11128,2959,0,
 1655061777462.44995117187,-0.04455566406,-0.10656738281,-1.02001953125,,,,,,,,
 1655061777486.46728515625,,,,,,5918,-9406,2959,0,
 1655061777527.33032226562,,,,,,5934,-7136,2967,0,
 1655061777543.6572265625,-0.04370117187,-0.10083007812,-1.01770019531,,,,,,,,
 1655061777568.52905273437,,,,,,5934,-4546,2967,0,
 1655061777609.66674804687,,,,,,5934,-1892,2967,0,
 1655061777622.30102539062,-0.04016113281,-0.09606933593,-1.02075195312,,,,,,,,
 1655061777650.86547851562,,,,,,5886,574,2943,0,
 1655061777692.00317382812,,,,,,5878,2629,2939,0,
 1655061777702.16552734375,-0.04064941406,-0.09802246093,-1.02734375,,,,,,,,
 1655061777733.20190429687,,,,,,5854,4074,2927,0,
 1655061777782.33520507812,-0.04809570312,-0.10302734375,-1.03051757812,,,,,,,,
 1655061777815.44677734375,,,,,,5790,4729,2895,0,
 1655061777851.97631835937,,,,,,,,,,68
 1655061777862.23022460937,-0.00573730468,-0.05224609375,-0.97985839843,,,,,,,,
 1655061777898.66821289062,,,,,,5726,4558,2863,0,
 1655061777903.94775390625,,,,67,96,,,,
 1655061777941.88110351562,,,,,,5694,3604,2847,0,
 1655061777980.08911132812,,,,,,5630,1970,2815,0,
 1655061778022.35595703125,0.07983398437,-0.05651855468,-1.08422851562,,,,,,,,
 1655061778094.22485351562,,,,,,5678,-122,2839,0,
 1655061778114.39697265625,,,,,,5742,-2474,2871,0,
 1655061778144.94506835937,,,,,,5790,-4838,2895,0,
 1655061778188.9208984375,-0.00903320312,-0.1171875,-1.06115722656,,,,,,,,
 1655061778193.22387695312,,,,,,5790,-6982,2895,0,
 1655061778227.28149414062,,,,,,5790,-8690,2895,0,
 1655061778262.31567382812,-0.01867675781,-0.10888671875,-1.04418945312,,,,,,,,
 1655061778309.43481445312,,,,,,5742,-9809,2871,0,
 1655061778347.21557617187,-0.02124023437,-0.10083007812,-1.03515625,,,,,,,,
 1655061778354.66186523437,,,,,,5726,-10197,2863,0,
 1655061778391.923828125,,,,,,5742,-9816,2871,0,
 1655061778422.0751953125,-0.03173828125,-0.10229492187,-1.02368164062,,,,,,,,
 1655061778434.7705078125,,,,,,5726,-8723,2863,0,
 1655061778474.26025390625,,,,,,5718,-7019,2859,0,
 1655061778502.275390625,-0.03674316406,-0.10827636718,-1.01831054687,,,,,,,,
 1655061778515.67260742187,,,,,,5694,-4874,2847,0,
 1655061778556.474609375,,,,,,5662,-2494,2831,0,
 1655061778582.109375,-0.03686523437,-0.10998535156,-1.01477050781,,,,,,,,
 1655061778597.91748046875,,,,,,5630,-130,2815,0,
 1655061778638.81103515625,,,,,,5598,2005,2799,0,
 1655061778662.00439453125,-0.04113769531,-0.1044921875,-1.01318359375,,,,,,,,
 1655061778680.71166992187,,,,,,5550,3716,2775,0,
 1655061778721.1474609375,,,,,,5502,4817,2751,0,
 1655061778742.35717773437,-0.04309082031,-0.09875488281,-1.01965332031,,,,,,,,
 1655061778803.60595703125,,,,,,5454,5190,2727,0,
 1655061778822.03857421875,-0.04614257812,-0.10241699218,-1.02685546875,,,,,,,,
 1655061778860.70434570312,,,,,,,,,,68
 1655061778863.45092773437,,,,,,5438,4825,2719,0,
 1655061778868.974609375,,,,67,96,,,,
 1655061778903.21533203125,-0.0517578125,-0.10510253906,-1.02709960937,,,,,,,,
 1655061778927.8125,,,,,,5582,3811,2791,0,
 1655061778968.27880859375,,,,,,5630,2201,2815,0,
 1655061778982.46948242187,-0.05017089843,-0.10424804687,-1.02099609375,,,,,,,,
 1655061779009.44702148437,,,,,,5630,158,2815,0,
 1655061779097.30712890625,-0.04528808593,-0.10498046875,-1.02429199218,,,,,,,,
 1655061779101.67114257812,,,,,,5630,-2096,2815,0,
 1655061779133.31787109375,,,,,,5598,-6434,2799,0,
 1655061779141.98486328125,-0.0419921875,-0.10107421875,-1.03112792968,,,,,,,,
 1655061779174.24194335937,,,,,,5598,-8124,2799,0,
 1655061779215.25756835937,,,,,,5598,-9277,2799,0,
 1655061779223.31420898437,-0.04455566406,-0.09924316406,-1.03015136718,,,,,,,,
 1655061779256.45629882812,,,,,,5598,-9776,2799,0,
 1655061779297.5634765625,,,,,,5598,-9604,2799,0,
 1655061779306.50512695312,-0.12390136718,-0.10571289062,-1.13598632812,,,,,,,,
 1655061779338.8232421875,,,,,,5566,-8762,2783,0,
 1655061779382.5244140625,,,,,,5534,-7353,2767,0,
 1655061779421.06811523437,,,,,,5502,-5521,2751,0,
 1655061779465.01342773437,-0.21423339843,-0.32507324218,-1.11279296875,,,,,,,,
 1655061779469.28588867187,,,,,,5486,-3443,2743,0,
 1655061779503.58764648437,,,,,,5462,-1330,2731,0,
 1655061779541.9482421875,-0.12390136718,-0.25061035156,-1.04943847656,,,,,,,,
 1655061779585.74096679687,,,,,,5374,592,2687,0,
 1655061779629.80834960937,-0.07958984375,-0.17321777343,-1.03771972656,,,,,,,,
 1655061779634.20288085937,,,,,,5438,2187,2719,0,
 1655061779668.59619140625,,,,,,5526,3290,2763,0,
 1655061779702.07397460937,-0.06005859375,-0.13708496093,-1.03112792968,,,,,,,,
 1655061779750.35278320312,,,,,,5630,3788,2815,0,
 1655061779781.87744140625,-0.0498046875,-0.1181640625,-1.02490234375,,,,,,,,
 1655061779795.21362304687,,,,,,5678,3593,2839,0,
 1655061779800.95092773437,,,,67,100,,,,
 1655061779832.93334960937,,,,,,5678,2690,2839,0,
 1655061779853.04443359375,,,,,,,,,,68
 1655061779862.3828125,-0.04724121093,-0.109375,-1.01574707031,,,,,,,,
 1655061779875.4443359375,,,,,,5662,1158,2831,0,
 1655061779915.33081054687,,,,,,5678,-859,2839,0,
 1655061779942.15576171875,-0.04809570312,-0.10522460937,-1.01049804687,,,,,,,,
 1655061779956.83471679687,,,,,,5686,-3187,2843,0,
 1655061779997.36206054687,,,,,,5694,-5623,2847,0,
 1655061780021.83715820312,-0.04638671875,-0.10119628906,-1.01635742187,,,,,,,,
 1655061780090.07446289062,,,,,,5726,-7946,2863,0,
 1655061780106.4013671875,-0.04345703125,-0.10046386718,-1.0263671875,,,,,,,,
 1655061780121.5380859375,,,,,,5686,-11529,2843,0,
 1655061780162.46215820312,,,,,,5678,-12434,2839,0,
 1655061780182.14599609375,-0.04113769531,-0.10522460937,-1.02478027343,,,,,,,,
 1655061780203.72192382812,,,,,,5630,-12615,2815,0,
 1655061780244.40185546875,,,,,,5622,-12015,2811,0,
 1655061780261.796875,-0.0400390625,-0.10021972656,-1.01989746093,,,,,,,,
 1655061780286.3330078125,,,,,,5598,-10713,2799,0,
 1655061780326.73828125,,,,,,5566,-8805,2783,0,
 1655061780343.095703125,-0.03942871093,-0.0947265625,-1.02587890625,,,,,,,,
 1655061780368.42529296875,,,,,,5566,-6434,2783,0,
 1655061780409.10522460937,,,,,,5630,-3802,2815,0,
 1655061780422.22778320312,-0.03918457031,-0.09423828125,-1.02868652343,,,,,,,,
 1655061780450.67016601562,,,,,,5758,-1122,2879,0,
 1655061780491.8994140625,,,,,,5850,1325,2925,0,
 1655061780501.75659179687,-0.03601074218,-0.09399414062,-1.02697753906,,,,,,,,
 1655061780533.00659179687,,,,,,5886,3343,2943,0,
 1655061780573.9306640625,,,,,,5918,4743,2959,0,
 1655061780581.9873046875,-0.03649902343,-0.10009765625,-1.02502441406,,,,,,,,
 1655061780615.25146484375,,,,,,5934,5382,2967,0,
 1655061780656.99951171875,,,,,,5942,5183,2971,0,
 1655061780664.96459960937,,,,68,100,,,,
 1655061780669.08447265625,-0.04406738281,-0.10095214843,-1.02099609375,,,,,,,,
 1655061780697.61840820312,,,,,,5950,4174,2975,0,
 1655061780741.2890625,,,,,,5982,2473,2991,0,
 1655061780779.7412109375,,,,,,5998,234,2999,0,
 1655061780823.59497070312,,,,,,5998,-2314,2999,0,
 1655061780858.44604492187,,,,,,,,,,68
 1655061780864.82421875,,,,,,6006,-4920,3003,0,
 1655061780907.4267578125,-0.03063964843,-0.0439453125,-0.93041992187,,,,,,,,
 1655061780911.5771484375,,,,,,5982,-7320,2991,0,
 1655061780944.56665039062,,,,,,5982,-9262,2991,0,
 1655061780988.359375,-0.03723144531,-0.07055664062,-0.986328125,,,,,,,,
 1655061780992.44873046875,,,,,,5950,-10593,2975,0,
 1655061781026.90307617187,,,,,,5934,-11167,2967,0,
 1655061781089.70825195312,-0.04235839843,-0.08508300781,-1.00085449218,,,,,,,,
 1655061781149.94995117187,-0.04052734375,-0.09594726562,-1.01293945312,,,,,,,,
 1655061781154.03930664062,,,,,,5870,-9854,2935,0,
 1655061781191.75903320312,,,,,,5846,-8116,2923,0,
 1655061781221.6357421875,-0.03979492187,-0.09582519531,-1.02160644531,,,,,,,,
 1655061781234.3310546875,,,,,,5886,-5887,2943,0,
 1655061781273.85131835937,,,,,,5998,-3379,2999,0,
 1655061781301.86645507812,-0.03833007812,-0.09790039062,-1.02783203125,,,,,,,,
 1655061781315.66040039062,,,,,,6102,-848,3051,0,
 1655061781356.06567382812,,,,,,6142,1410,3071,0,
 1655061781381.94458007812,-0.03662109375,-0.10400390625,-1.02758789062,,,,,,,,
 1655061781438.37158203125,,,,,,6230,3214,3115,0,
 1655061781461.59545898437,-0.041015625,-0.10693359375,-1.02221679687,,,,,,,,
 1655061781480.08911132812,,,,,,6238,4345,3119,0,
 1655061781520.67749023437,,,,,,6254,4711,3127,0,
 1655061781541.9482421875,-0.04931640625,-0.109375,-1.017578125,,,,,,,,
 1655061781563.09692382812,,,,,,6294,4304,3147,0,
 1655061781568.74267578125,,,,67,100,,,,
 1655061781603.16650390625,,,,,,6302,3179,3151,0,
 1655061781622.0263671875,-0.04797363281,-0.109375,-1.02075195312,,,,,,,,
 1655061781644.76196289062,,,,,,6318,1522,3159,0,
 1655061781685.31982421875,,,,,,6334,-456,3167,0,
 1655061781701.55517578125,-0.0400390625,-0.10632324218,-1.02429199218,,,,,,,,
 1655061781727.18994140625,,,,,,6318,-2523,3159,0,
 1655061781767.68676757812,,,,,,6302,-4443,3151,0,
 1655061781781.90795898437,-0.03540039062,-0.099609375,-1.02062988281,,,,,,,,
 1655061781809.22119140625,,,,,,6270,-6010,3135,0,
 1655061781862.29125976562,,,,,,,,,,68
 1655061781865.03784179687,,,,,,6270,-7077,3135,0,
 1655061781891.52709960937,,,,,,6238,-7556,3119,0,
 1655061781932.35961914062,,,,,,6206,-7418,3103,0,
 1655061781941.51489257812,-0.04650878906,-0.10070800781,-1.02331542968,,,,,,,,
 1655061781974.04663085937,,,,,,6190,-6717,3095,0,
 1655061782014.69604492187,,,,,,6142,-5646,3071,0,
 1655061782022.81372070312,-0.04565429687,-0.10327148437,-1.0244140625,,,,,,,,
 1655061782094.86572265625,,,,,,6142,-4346,3071,0,
 1655061782111.46728515625,,,,,,6110,-3051,3055,0,
 1655061782139.45190429687,,,,,,6078,-1952,3039,0,
 1655061782182.0849609375,,,,,,6142,-1192,3071,0,
 1655061782220.72021484375,,,,,,6262,-868,3131,0,
 1655061782265.52001953125,-0.0859375,-0.19519042968,-1.01977539062,,,,,,,,
 1655061782269.45678710937,,,,,,6358,-1054,3179,0,
 1655061782275.07202148437,,,,67,100,,,,
 1655061782303.20922851562,,,,,,6398,-1736,3199,0,
 1655061782346.97143554687,-0.06298828125,-0.14318847656,-1.02062988281,,,,,,,,
 1655061782351.18286132812,,,,,,6430,-2804,3215,0,
 1655061782430.46752929687,-0.05017089843,-0.12512207031,-1.02319335937,,,,,,,,
 1655061782434.49584960937,,,,,,6462,-4072,3231,0,
 1655061782467.88208007812,,,,,,6462,-5365,3231,0,
 1655061782501.54296875,-0.04211425781,-0.11462402343,-1.02746582031,,,,,,,,
 1655061782550.0048828125,,,,,,6518,-6455,3259,0,
 1655061782581.59057617187,-0.04357910156,-0.11193847656,-1.02734375,,,,,,,,
 1655061782594.04174804687,,,,,,6518,-7200,3259,0,
 1655061782632.95166015625,,,,,,6510,-7488,3255,0,
 1655061782661.39404296875,-0.04638671875,-0.11364746093,-1.0263671875,,,,,,,,
 1655061782674.30297851562,,,,,,6494,-7251,3247,0,
 1655061782714.83032226562,,,,,,6462,-6523,3231,0,
 1655061782741.62475585937,-0.04663085937,-0.10729980468,-1.02795410156,,,,,,,,
 1655061782756.21215820312,,,,,,6446,-5383,3223,0,
 1655061782797.04467773437,,,,,,6430,-3995,3215,0,
 1655061782821.67236328125,-0.04992675781,-0.10217285156,-1.02661132812,,,,,,,,
 1655061782838.36547851562,,,,,,6398,-2565,3199,0,
 1655061782858.62915039062,,,,,,,,,,68
 1655061782879.56420898437,,,,,,6382,-1268,3191,0,
 1655061782901.35375976562,-0.04833984375,-0.10192871093,-1.02282714843,,,,,,,,
 1655061782921.00708007812,,,,,,6366,-309,3183,0,
 1655061782962.20581054687,,,,,,6318,172,3159,0,
 1655061782982.71362304687,-0.04443359375,-0.10388183593,-1.02526855468,,,,,,,,
 1655061783003.89282226562,,,,,,6270,73,3135,0,
 1655061783009.41650390625,,,,67,100,,,,
 1655061783097.734375,-0.04467773437,-0.10473632812,-1.03149414062,,,,,,,,
 1655061783101.7626953125,,,,,,6254,-588,3127,0,
 1655061783126.60400390625,,,,,,6206,-3305,3103,0,
 1655061783141.28295898437,-0.04577636718,-0.10620117187,-1.03234863281,,,,,,,,
 1655061783167.65014648437,,,,,,6270,-4945,3135,0,
 1655061783208.90991210937,,,,,,6366,-6444,3183,0,
 1655061783221.54418945312,-0.04431152343,-0.10791015625,-1.02868652343,,,,,,,,
 1655061783250.38330078125,,,,,,6430,-7617,3215,0,
 1655061783291.12426757812,,,,,,6462,-8283,3231,0,
 1655061783301.591796875,-0.04248046875,-0.103515625,-1.02478027343,,,,,,,,
 1655061783332.75024414062,,,,,,6494,-8325,3247,0,
 1655061783373.4912109375,,,,,,6486,-7706,3243,0,
 1655061783381.48681640625,-0.04174804687,-0.09838867187,-1.02099609375,,,,,,,,
 1655061783415.1171875,,,,,,6494,-6438,3247,0,
 1655061783455.7666015625,,,,,,6510,-4649,3255,0,
 1655061783463.8232421875,-0.005859375,-0.06372070312,-0.96911621093,,,,,,,,
 1655061783497.60620117187,,,,,,6510,-2562,3255,0,
 1655061783540.9716796875,,,,,,6526,-434,3263,0,
 1655061783579.45434570312,,,,,,6526,1455,3263,0,
 1655061783624.19311523437,,,,,,6494,2852,3247,0,
 1655061783661.79077148437,,,,,,6486,3588,3243,0,
 1655061783706.59057617187,-0.07165527343,-0.20678710937,-1.0458984375,,,,,,,,
 1655061783710.58837890625,,,,,,6462,3546,3231,0,
 1655061783716.20361328125,,,,67,100,,,,
 1655061783744.61547851562,,,,,,6398,2666,3199,0,
 1655061783788.7744140625,-0.06262207031,-0.15173339843,-1.0380859375,,,,,,,,
 1655061783792.77221679687,,,,,,6398,1070,3199,0,
 1655061783826.70776367187,,,,,,6366,-1118,3183,0,
 1655061783852.22045898437,,,,,,,,,,68
 1655061783861.19262695312,-0.05310058593,-0.12609863281,-1.03759765625,,,,,,,,
 1655061783908.83056640625,,,,,,6294,-3653,3147,0,
 1655061783946.45874023437,-0.04772949218,-0.11511230468,-1.04248046875,,,,,,,,
 1655061783954.21020507812,,,,,,6270,-6208,3135,0,
 1655061783991.59423828125,,,,,,6230,-8512,3115,0,
 1655061784021.34887695312,-0.04309082031,-0.10693359375,-1.04272460937,,,,,,,,
 1655061784033.92211914062,,,,,,6142,-10286,3071,0,
 1655061784100.60302734375,,,,,,6142,-11321,3071,0,
 1655061784118.8525390625,,,,,,6102,-11533,3051,0,
 1655061784156.14501953125,,,,,,6110,-10875,3055,0,
 1655061784181.41357421875,-0.03881835937,-0.10070800781,-1.02404785156,,,,,,,,
 1655061784197.25219726562,,,,,,6142,-9378,3071,0,
 1655061784261.30859375,-0.03588867187,-0.09912109375,-1.02258300781,,,,,,,,
 1655061784279.52758789062,,,,,,6270,-7169,3135,0,
 1655061784320.42114257812,,,,,,6270,-4545,3135,0,
 1655061784342.21069335937,-0.03857421875,-0.10461425781,-1.02612304687,,,,,,,,
 1655061784361.95556640625,,,,,,6270,-1771,3135,0,
 1655061784402.72705078125,,,,,,6254,833,3127,0,
 1655061784421.49536132812,-0.0419921875,-0.10302734375,-1.03405761718,,,,,,,,
 1655061784444.01733398437,,,,,,6238,2996,3119,0,
 1655061784485.185546875,,,,,,6238,4496,3119,0,
 1655061784501.298828125,-0.04455566406,-0.09814453125,-1.03356933593,,,,,,,,
 1655061784526.5673828125,,,,,,6238,5172,3119,0,
 1655061784568.25439453125,,,,,,6238,4946,3119,0,
 1655061784573.53393554687,,,,68,100,,,,
 1655061784581.07177734375,-0.04895019531,-0.09997558593,-1.02917480468,,,,,,,,
 1655061784609.39208984375,,,,,,6238,3840,3119,0,
 1655061784649.70581054687,,,,,,6198,1975,3099,0,
 1655061784661.30249023437,-0.05505371093,-0.10290527343,-1.02197265625,,,,,,,,
 1655061784691.33178710937,,,,,,6142,-458,3071,0,
 1655061784732.04223632812,,,,,,6142,-3159,3071,0,
 1655061784741.35009765625,-0.05493164062,-0.10534667968,-1.01440429687,,,,,,,,
 1655061784773.54614257812,,,,,,6078,-5886,3039,0,
 1655061784814.34814453125,,,,,,6046,-8369,3023,0,
 1655061784822.40478515625,-0.04956054687,-0.10339355468,-1.01611328125,,,,,,,,
 1655061784860.09399414062,,,,,,,,,,69
 1655061784863.05419921875,,,,,,6014,-10379,3007,0,
 1655061784899.6142578125,,,,,,5982,-11700,2991,0,
 1655061784904.89379882812,0.01025390625,-0.08471679687,-0.96057128906,,,,,,,,
 1655061784981.85913085937,,,,,,5886,-12229,2943,0,
 1655061785098.98559570312,-0.01123046875,-0.09069824218,-0.978515625,,,,,,,,
 1655061785103.16650390625,,,,,,5806,-11898,2903,0,
 1655061785148.08837890625,-0.02807617187,-0.09643554687,-1.00146484375,,,,,,,,
 1655061785152.177734375,,,,,,5790,-8941,2895,0,
 1655061785185.44189453125,,,,,,5854,-6542,2927,0,
 1655061785228.99047851562,-0.03503417968,-0.09606933593,-1.01318359375,,,,,,,,
 1655061785233.01879882812,,,,,,5886,-3824,2943,0,
 1655061785267.50366210937,,,,,,5886,-1037,2943,0,
 1655061785300.92041015625,-0.04443359375,-0.09387207031,-1.02490234375,,,,,,,,
 1655061785349.59594726562,,,,,,5870,1590,2935,0,
 1655061785386.21704101562,-0.04675292968,-0.10009765625,-1.02307128906,,,,,,,,
 1655061785394.02954101562,,,,,,5822,3804,2911,0,
 1655061785432.5732421875,,,,,,5814,5422,2907,0,
 1655061785462.08374023437,-0.04577636718,-0.10607910156,-1.01904296875,,,,,,,,
 1655061785474.74853515625,,,,,,5806,6300,2903,0,
 1655061785514.69604492187,,,,,,5790,6375,2895,0,
 1655061785540.849609375,-0.04638671875,-0.10473632812,-1.01928710937,,,,,,,,
 1655061785556.16943359375,,,,,,5790,5668,2895,0,
 1655061785561.9677734375,,,,68,100,,,,
 1655061785596.8798828125,,,,,,5758,4215,2879,0,
 1655061785621.2939453125,-0.04455566406,-0.09997558593,-1.02258300781,,,,,,,,
 1655061785637.62084960937,,,,,,5726,2133,2863,0,
 1655061785679.21630859375,,,,,,5694,-385,2847,0,
 1655061785701.21948242187,-0.04260253906,-0.09460449218,-1.02404785156,,,,,,,,
 1655061785719.95727539062,,,,,,5630,-3159,2815,0,
 1655061785761.70532226562,,,,,,5622,-5952,2811,0,
 1655061785781.02294921875,-0.04382324218,-0.09619140625,-1.02270507812,,,,,,,,
 1655061785802.6904296875,,,,,,5566,-8526,2783,0,
 1655061785860.82641601562,,,,,,,,,,69
 1655061785863.63403320312,,,,,,5534,-10678,2767,0,
 1655061785884.78271484375,,,,,,5502,-12282,2751,0,
 1655061785925.9814453125,,,,,,5438,-13196,2719,0,
 1655061785942.30834960937,-0.04711914062,-0.09375,-1.02893066406,,,,,,,,
 1655061786008.43994140625,,,,,,5406,-13310,2703,0,
 1655061786020.76904296875,-0.044921875,-0.09484863281,-1.02905273437,,,,,,,,
 1655061786101.06079101562,-0.04797363281,-0.1015625,-1.02392578125,,,,,,,,
 1655061786131.94458007812,,,,,,5534,-11057,2767,0,
 1655061786172.9296875,,,,,,5550,-8899,2775,0,
 1655061786181.13891601562,-0.04846191406,-0.10583496093,-1.02368164062,,,,,,,,
 1655061786214.28100585937,,,,,,5534,-6290,2767,0,
 1655061786255.84594726562,,,,,,5526,-3428,2763,0,
 1655061786264.05517578125,-0.04443359375,-0.10571289062,-1.02453613281,,,,,,,,
 1655061786296.5869140625,,,,,,5502,-551,2751,0,
 1655061786340.34912109375,,,,,,5494,2100,2747,0,
 1655061786345.9033203125,-0.0791015625,-0.18176269531,-1.01879882812,,,,,,,,
 1655061786379.07592773437,,,,,,5502,4329,2751,0,
 1655061786422.8076171875,,,,,,5502,5944,2751,0,
 1655061786461.10717773437,,,,,,5494,6805,2747,0,
 1655061786505.29663085937,-0.07653808593,-0.08410644531,-0.79064941406,,,,,,,,
 1655061786509.38598632812,,,,,,5470,6834,2735,0,
 1655061786544.45068359375,,,,,,5438,6023,2719,0,
 1655061786550.21850585937,,,,67,100,,,,
 1655061786588.85375976562,-0.05749511718,-0.08410644531,-0.9169921875,,,,,,,,
 1655061786593.00415039062,,,,,,5406,4441,2703,0,
 1655061786626.0546875,,,,,,5374,2255,2687,0,
 1655061786660.90576171875,-0.05078125,-0.09240722656,-0.98205566406,,,,,,,,
 1655061786708.14697265625,,,,,,5310,-438,2655,0,
 1655061786749.04052734375,-0.04870605468,-0.09521484375,-1.01354980468,,,,,,,,
 1655061786753.251953125,,,,,,5278,-3374,2639,0,
 1655061786790.45288085937,,,,,,5246,-6309,2623,0,
 1655061786820.81787109375,-0.04663085937,-0.09753417968,-1.02612304687,,,,,,,,
 1655061786833.57421875,,,,,,5230,-9005,2615,0,
 1655061786854.08203125,,,,,,,,,,68
 1655061786873.4912109375,,,,,,5278,-11215,2639,0,
 1655061786900.98754882812,-0.04370117187,-0.09655761718,-1.02990722656,,,,,,,,
 1655061786914.29321289062,,,,,,5358,-12758,2679,0,
 1655061786980.60791015625,-0.04541015625,-0.09204101562,-1.02746582031,,,,,,,,
 1655061786996.50756835937,,,,,,5462,-13499,2731,0,
 1655061787038.19458007812,,,,,,5486,-13419,2743,0,
 1655061787106.49291992187,-0.04711914062,-0.08984375,-1.0263671875,,,,,,,,
 1655061787115.73974609375,,,,,,5486,-12516,2743,0,
 1655061787140.703125,-0.04699707031,-0.09191894531,-1.02587890625,,,,,,,,
 1655061787161.69921875,,,,,,5486,-8602,2743,0,
 1655061787202.80639648437,,,,,,5502,-5890,2751,0,
 1655061787220.81176757812,-0.04797363281,-0.09399414062,-1.02453613281,,,,,,,,
 1655061787243.486328125,,,,,,5502,-2967,2751,0,
 1655061787284.65454101562,,,,,,5502,-53,2751,0,
 1655061787300.92041015625,-0.04736328125,-0.09289550781,-1.02294921875,,,,,,,,
 1655061787326.28051757812,,,,,,5502,2605,2751,0,
 1655061787366.99096679687,,,,,,5494,4866,2747,0,
 1655061787381.94458007812,-0.04602050781,-0.09448242187,-1.02209472656,,,,,,,,
 1655061787408.037109375,,,,,,5470,6493,2735,0,
 1655061787449.6630859375,,,,,,5454,7417,2727,0,
 1655061787460.52734375,-0.04443359375,-0.09716796875,-1.02282714843,,,,,,,,
 1655061787490.49560546875,,,,,,5438,7554,2719,0,
 1655061787532.39624023437,,,,,,5406,6922,2703,0,
 1655061787540.60546875,,,,67,100,,,,
 1655061787544.29809570312,-0.04675292968,-0.09851074218,-1.02416992187,,,,,,,,
 1655061787572.86254882812,,,,,,5374,5581,2687,0,
 1655061787614.27490234375,,,,,,5358,3658,2679,0,
 1655061787622.48413085937,-0.04577636718,-0.09912109375,-1.02893066406,,,,,,,,
 1655061787655.07690429687,,,,,,5342,1281,2671,0,
 1655061787698.99169921875,,,,,,5342,-1368,2671,0,
 1655061787704.60693359375,-0.04113769531,-0.09729003906,-1.03015136718,,,,,,,,
 1655061787737.41333007812,,,,,,5430,-4052,2715,0,
 1655061787781.38916015625,,,,,,5534,-6612,2767,0,
 1655061787819.71923828125,,,,,,5598,-8856,2799,0,
 1655061787859.23950195312,,,,,,,,,,68
 1655061787865.9228515625,-0.02673339843,-0.03344726562,-0.95251464843,,,,,,,,
 1655061787870.28686523437,,,,,,5630,-10621,2815,0,
 1655061787903.00170898437,,,,,,5678,-11797,2839,0,
 1655061787946.39770507812,-0.00830078125,-0.02087402343,-0.89868164062,,,,,,,,
 1655061787950.54809570312,,,,,,5694,-12296,2847,0,
 1655061788029.77172851562,-0.02563476562,-0.06286621093,-0.96423339843,,,,,,,,
 1655061788034.22729492187,,,,,,5726,-12114,2863,0,
 1655061788099.99267578125,,,,,,5742,-11281,2871,0,
 1655061788149.3701171875,,,,,,5782,-9855,2891,0,
 1655061788180.40649414062,-0.03552246093,-0.0859375,-1.00695800781,,,,,,,,
 1655061788193.46801757812,,,,,,5758,-7975,2879,0,
 1655061788231.92016601562,,,,,,5758,-5797,2879,0,
 1655061788260.63720703125,-0.03942871093,-0.09020996093,-1.01574707031,,,,,,,,
 1655061788273.69873046875,,,,,,5742,-3523,2871,0,
 1655061788314.19555664062,,,,,,5726,-1332,2863,0,
 1655061788340.47119140625,-0.04235839843,-0.09729003906,-1.01879882812,,,,,,,,
 1655061788355.1806640625,,,,,,5710,647,2855,0,
 1655061788396.22680664062,,,,,,5694,2238,2847,0,
 1655061788420.3662109375,-0.04370117187,-0.09851074218,-1.01501464843,,,,,,,,
 1655061788437.79174804687,,,,,,5678,3342,2839,0,
 1655061788478.56323242187,,,,,,5630,3845,2815,0,
 1655061788501.72607421875,-0.04638671875,-0.09814453125,-1.01220703125,,,,,,,,
 1655061788520.830078125,,,,,,5614,3732,2807,0,
 1655061788526.17065429687,,,,66,100,,,,
 1655061788560.89965820312,,,,,,5598,2994,2799,0,
 1655061788580.43090820312,-0.04772949218,-0.10107421875,-1.02136230468,,,,,,,,
 1655061788602.4951171875,,,,,,5598,1716,2799,0,
 1655061788643.2666015625,,,,,,5630,42,2815,0,
 1655061788660.66162109375,-0.04724121093,-0.10131835937,-1.02758789062,,,,,,,,
 1655061788684.70947265625,,,,,,5758,-1851,2879,0,
 1655061788726.09130859375,,,,,,5878,-3790,2939,0,
 1655061788740.83129882812,-0.04382324218,-0.09631347656,-1.02429199218,,,,,,,,
 1655061788766.95434570312,,,,,,5950,-5615,2975,0,
 1655061788808.03100585937,,,,,,5998,-7140,2999,0,
 1655061788820.390625,-0.04333496093,-0.09387207031,-1.01867675781,,,,,,,,
 1655061788860.46020507812,,,,,,,,,,68
 1655061788863.2373046875,,,,,,6014,-8238,3007,0,
 1655061788890.703125,,,,,,6046,-8772,3023,0,
 1655061788900.28564453125,-0.04309082031,-0.09387207031,-1.02111816406,,,,,,,,
 1655061788931.5966796875,,,,,,6062,-8731,3031,0,
 1655061788972.76489257812,,,,,,6102,-8086,3051,0,
 1655061788980.97412109375,-0.04296875,-0.09387207031,-1.02966308593,,,,,,,,
 1655061789013.84155273437,,,,,,6142,-6920,3071,0,
 1655061789099.01611328125,-0.04406738281,-0.09069824218,-1.02734375,,,,,,,,
 1655061789102.9833984375,,,,,,6142,-5384,3071,0,
 1655061789140.48950195312,,,,,,6142,-1821,3071,0,
 1655061789178.39233398437,,,,,,6142,-157,3071,0,
 1655061789222.490234375,,,,,,6142,1199,3071,0,
 1655061789260.72875976562,,,,,,6126,2098,3063,0,
 1655061789304.91821289062,-0.15234375,-0.21997070312,-1.14221191406,,,,,,,,
 1655061789309.2822265625,,,,,,6110,2409,3055,0,
 1655061789344.28588867187,,,,,,6110,2120,3055,0,
 1655061789349.90112304687,,,,66,100,,,,
 1655061789388.41430664062,-0.1357421875,-0.25378417968,-1.21435546875,,,,,,,,
 1655061789392.65625,,,,,,6078,1221,3039,0,
 1655061789425.615234375,,,,,,6078,-204,3039,0,
 1655061789460.43579101562,-0.06958007812,-0.1611328125,-1.171875,,,,,,,,
 1655061789507.79907226562,,,,,,6014,-2039,3007,0,
 1655061789545.3662109375,-0.04699707031,-0.12109375,-1.10205078125,,,,,,,,
 1655061789553.27026367187,,,,,,5982,-4094,2991,0,
 1655061789590.31860351562,,,,,,5950,-6155,2975,0,
 1655061789620.16479492187,-0.04064941406,-0.10229492187,-1.06323242187,,,,,,,,
 1655061789633.40942382812,,,,,,5950,-8031,2975,0,
 1655061789672.62451171875,,,,,,6046,-9478,3023,0,
 1655061789700.3955078125,-0.04077148437,-0.09777832031,-1.03576660156,,,,,,,,
 1655061789754.99145507812,,,,,,6238,-10320,3119,0,
 1655061789780.19897460937,-0.03784179687,-0.09362792968,-1.02709960937,,,,,,,,
 1655061789796.52587890625,,,,,,6270,-10534,3135,0,
 1655061789837.51098632812,,,,,,6318,-10041,3159,0,
 1655061789863.4814453125,,,,,,,,,,68
 1655061789866.22802734375,-0.03430175781,-0.09265136718,-1.03552246093,,,,,,,,
 1655061789879.62524414062,,,,,,6334,-8890,3167,0,
 1655061789920.03051757812,,,,,,6350,-7182,3175,0,
 1655061789940.47729492187,-0.03369140625,-0.09326171875,-1.03735351562,,,,,,,,
 1655061789961.32080078125,,,,,,6366,-5065,3183,0,
 1655061790001.84814453125,,,,,,6398,-2776,3199,0,
 1655061790020.15869140625,-0.03442382812,-0.08935546875,-1.02990722656,,,,,,,,
 1655061790094.62158203125,,,,,,6430,-549,3215,0,
 1655061790111.86401367187,,,,,,6430,1352,3215,0,
 1655061790166.64306640625,,,,,,6430,2759,3215,0,
 1655061790180.58959960937,-0.03393554687,-0.08520507812,-1.02429199218,,,,,,,,
 1655061790207.81127929687,,,,,,6398,3490,3199,0,
 1655061790249.68139648437,,,,,,6382,3470,3191,0,
 1655061790255.35766601562,,,,67,100,,,,
 1655061790261.97998046875,-0.03771972656,-0.08557128906,-1.02587890625,,,,,,,,
 1655061790290.26977539062,,,,,,6366,2680,3183,0,
 1655061790331.28540039062,,,,,,6334,1158,3167,0,
 1655061790340.25756835937,-0.03942871093,-0.087890625,-1.02563476562,,,,,,,,
 1655061790372.97241210937,,,,,,6318,-921,3159,0,
 1655061790413.62182617187,,,,,,6302,-3351,3151,0,
 1655061790421.77001953125,-0.037109375,-0.08581542968,-1.01916503906,,,,,,,,
 1655061790454.94262695312,,,,,,6270,-5905,3135,0,
 1655061790498.67431640625,,,,,,6238,-8284,3119,0,
 1655061790504.19799804687,-0.03601074218,-0.08288574218,-1.02661132812,,,,,,,,
 1655061790537.3095703125,,,,,,6206,-10260,3103,0,
 1655061790580.12573242187,-0.03247070312,-0.08557128906,-1.03637695312,,,,,,,,
 1655061790619.462890625,,,,,,6134,-11629,3067,0,
 1655061790664.56787109375,-0.03076171875,-0.08996582031,-1.03881835937,,,,,,,,
 1655061790668.779296875,,,,,,6110,-12222,3055,0,
 1655061790701.982421875,,,,,,6142,-11945,3071,0,
 1655061790745.927734375,-0.05712890625,-0.07116699218,-1.10144042968,,,,,,,,
 1655061790750.13916015625,,,,,,6238,-10816,3119,0,
 1655061790784.31884765625,,,,,,6302,-8933,3151,0,
 1655061790828.26416015625,-0.00891113281,-0.0166015625,-1.07861328125,,,,,,,,
 1655061790832.62817382812,,,,,,6334,-6488,3167,0,
 1655061790852.67822265625,,,,,,,,,,68
 1655061790867.20458984375,,,,,,6334,-3733,3167,0,
 1655061790900.3466796875,0.03967285156,-0.0087890625,-1.00122070312,,,,,,,,
 1655061790948.77807617187,,,,,,6334,-939,3167,0,
 1655061790979.99755859375,0.00085449218,-0.04895019531,-1.01306152343,,,,,,,,
 1655061790993.15063476562,,,,,,6334,1623,3167,0,
 1655061791031.26708984375,,,,,,6334,3674,3167,0,
 1655061791099.29077148437,-0.0224609375,-0.06872558593,-1.01965332031,,,,,,,,
 1655061791103.4716796875,,,,,,6366,5018,3183,0,
 1655061791141.40502929687,-0.03540039062,-0.08215332031,-1.01843261718,,,,,,,,
 1655061791156.26708984375,,,,,,6334,5057,3167,0,
 1655061791162.09594726562,,,,66,100,,,,
 1655061791196.611328125,,,,,,6318,3776,3159,0,
 1655061791219.95727539062,-0.03833007812,-0.08630371093,-1.01904296875,,,,,,,,
 1655061791237.56591796875,,,,,,6302,1806,3151,0,
 1655061791278.30688476562,,,,,,6254,-678,3127,0,
 1655061791300.18798828125,-0.03979492187,-0.08190917968,-1.02136230468,,,,,,,,
 1655061791319.84130859375,,,,,,6230,-3413,3115,0,
 1655061791360.52124023437,,,,,,6206,-6110,3103,0,
 1655061791380.23559570312,-0.03942871093,-0.08410644531,-1.01928710937,,,,,,,,
 1655061791401.99462890625,,,,,,6142,-8517,3071,0,
 1655061791443.10180664062,,,,,,6134,-10355,3067,0,
 1655061791459.9169921875,-0.04235839843,-0.08825683593,-1.01416015625,,,,,,,,
 1655061791484.66674804687,,,,,,6078,-11450,3039,0,
 1655061791525.19409179687,,,,,,6046,-11693,3023,0,
 1655061791540.26977539062,-0.046875,-0.08703613281,-1.01599121093,,,,,,,,
 1655061791566.88110351562,,,,,,6014,-11075,3007,0,
 1655061791607.71362304687,,,,,,5998,-9647,2999,0,
 1655061791620.34790039062,-0.04577636718,-0.09167480468,-1.02209472656,,,,,,,,
 1655061791649.18701171875,,,,,,5998,-7562,2999,0,
 1655061791690.05004882812,,,,,,6062,-5031,3031,0,
 1655061791700.94482421875,-0.04638671875,-0.0927734375,-1.02062988281,,,,,,,,
 1655061791731.5234375,,,,,,6110,-2294,3055,0,
 1655061791772.38647460937,,,,,,6138,347,3069,0,
 1655061791780.65673828125,-0.04553222656,-0.09436035156,-1.02001953125,,,,,,,,
 1655061791813.85986328125,,,,,,6142,2633,3071,0,
 1655061791862.87109375,,,,,,,,,,68
 1655061791865.64819335937,,,,,,6126,4344,3063,0,
 1655061791896.40991210937,,,,,,6094,5286,3047,0,
 1655061791939.71435546875,,,,,,6094,5411,3047,0,
 1655061791979.05151367187,,,,,,6110,4702,3055,0,
 1655061791984.453125,,,,67,96,,,,
 1655061792022.72216796875,,,,,,6102,3225,3051,0,
 1655061792100.51147460937,,,,,,6094,1060,3047,0,
 1655061792114.24438476562,,,,,,6078,-1546,3039,0,
 1655061792143.05297851562,,,,,,6046,-4358,3023,0,
 1655061792187.08984375,-0.03442382812,-0.02612304687,-0.96704101562,,,,,,,,
 1655061792191.39282226562,,,,,,6014,-7109,3007,0,
 1655061792225.32836914062,,,,,,5982,-9579,2991,0,
 1655061792259.87426757812,-0.04211425781,-0.04248046875,-0.99291992187,,,,,,,,
 1655061792307.51220703125,,,,,,5934,-11578,2967,0,
 1655061792340.92895507812,-0.05200195312,-0.10949707031,-1.06030273437,,,,,,,,
 1655061792389.8486328125,,,,,,5854,-12964,2927,0,
 1655061792419.755859375,-0.04919433593,-0.09594726562,-1.046875,,,,,,,,
 1655061792472.18505859375,,,,,,5782,-13619,2891,0,
 1655061792499.98657226562,-0.04797363281,-0.09484863281,-1.03649902343,,,,,,,,
 1655061792513.81103515625,,,,,,5758,-13496,2879,0,
 1655061792554.521484375,,,,,,5822,-12545,2911,0,
 1655061792580.06469726562,-0.0400390625,-0.09326171875,-1.025390625,,,,,,,,
 1655061792596.33056640625,,,,,,5886,-10862,2943,0,
 1655061792637.01049804687,,,,,,5950,-8609,2975,0,
 1655061792659.71557617187,-0.03112792968,-0.08520507812,-1.02429199218,,,,,,,,
 1655061792678.63647460937,,,,,,5982,-5942,2991,0,
 1655061792719.1943359375,,,,,,5950,-3078,2975,0,
 1655061792740.09887695312,-0.03015136718,-0.08251953125,-1.02172851562,,,,,,,,
 1655061792760.88134765625,,,,,,5950,-217,2975,0,
 1655061792801.50024414062,,,,,,5950,2406,2975,0,
 1655061792820.08544921875,-0.03588867187,-0.08642578125,-1.02258300781,,,,,,,,
 1655061792858.56811523437,,,,,,,,,,68
 1655061792861.31469726562,,,,,,5950,4631,2975,0,
 1655061792883.9892578125,,,,,,5950,6294,2975,0,
 1655061792899.67529296875,-0.04174804687,-0.09033203125,-1.02404785156,,,,,,,,
 1655061792925.58471679687,,,,,,5950,7258,2975,0,
 1655061792966.17309570312,,,,,,5934,7441,2967,0,
 1655061792979.87548828125,-0.04235839843,-0.09326171875,-1.02368164062,,,,,,,,
 1655061793008.68408203125,,,,,,5934,6842,2967,0,
 1655061793014.63500976562,,,,67,96,,,,
 1655061793098.68041992187,-0.04272460937,-0.09045410156,-1.0224609375,,,,,,,,
 1655061793102.76977539062,,,,,,5886,5470,2943,0,
 1655061793131.12060546875,,,,,,5854,929,2927,0,
 1655061793140.79467773437,-0.04174804687,-0.08801269531,-1.02502441406,,,,,,,,
 1655061793172.71606445312,,,,,,5822,-1911,2911,0,
 1655061793213.39599609375,,,,,,5790,-4887,2895,0,
 1655061793221.57470703125,-0.04138183593,-0.09008789062,-1.02416992187,,,,,,,,
 1655061793254.93041992187,,,,,,5758,-7781,2879,0,
 1655061793298.2958984375,,,,,,5742,-10354,2871,0,
 1655061793303.7890625,-0.04016113281,-0.08996582031,-1.02380371093,,,,,,,,
 1655061793337.29736328125,,,,,,5694,-12466,2847,0,
 1655061793380.72387695312,,,,,,5686,-13895,2843,0,
 1655061793419.60327148437,,,,,,5726,-14538,2863,0,
 1655061793463.212890625,-0.03979492187,-0.08581542968,-1.02392578125,,,,,,,,
 1655061793467.36328125,,,,,,5814,-14306,2907,0,
 1655061793501.87866210937,,,,,,5878,-13220,2939,0,
 1655061793545.51879882812,-0.04357910156,-0.0859375,-1.02160644531,,,,,,,,
 1655061793549.638671875,,,,,,5934,-11367,2967,0,
 1655061793584.306640625,,,,,,5950,-8885,2975,0,
 1655061793629.1064453125,-0.01196289062,-0.01098632812,-0.95483398437,,,,,,,,
 1655061793633.134765625,,,,,,5950,-5959,2975,0,
 1655061793699.6630859375,0.00793457031,0.02294921875,-0.92053222656,,,,,,,,
 1655061793748.61328125,,,,,,5998,-2810,2999,0,
 1655061793784.68505859375,-0.01391601562,-0.03820800781,-0.97021484375,,,,,,,,
 1655061793792.71118164062,,,,,,6014,316,3007,0,
 1655061793831.71264648437,,,,,,6038,3210,3019,0,
 1655061793851.884765625,,,,,,,,,,68
 1655061793859.51416015625,-0.02416992187,-0.06787109375,-0.99340820312,,,,,,,,
 1655061793913.2861328125,,,,,,6014,5565,3007,0,
 1655061793939.775390625,-0.02685546875,-0.07971191406,-1.00524902343,,,,,,,,
 1655061793955.00366210937,,,,,,5982,7225,2991,0,
 1655061793995.59204101562,,,,,,5974,8079,2987,0,
 1655061794019.82299804687,-0.02709960937,-0.08203125,-1.01489257812,,,,,,,,
 1655061794037.85888671875,,,,,,5950,8070,2975,0,
 1655061794043.62670898437,,,,66,96,,,,
 1655061794107.56103515625,,,,,,5934,7203,2967,0,
 1655061794126.60400390625,,,,,,5918,5556,2959,0,
 1655061794160.44799804687,,,,,,5886,3266,2943,0,
 1655061794179.85717773437,-0.03503417968,-0.08666992187,-1.01428222656,,,,,,,,
 1655061794242.60131835937,,,,,,5822,504,2911,0,
 1655061794259.69116210937,-0.04125976562,-0.08312988281,-1.01599121093,,,,,,,,
 1655061794284.41040039062,,,,,,5790,-2487,2895,0,
 1655061794324.96826171875,,,,,,5758,-5478,2879,0,
 1655061794339.43359375,-0.04431152343,-0.08471679687,-1.01782226562,,,,,,,,
 1655061794366.59423828125,,,,,,5790,-8182,2895,0,
 1655061794407.3046875,,,,,,5886,-10376,2943,0,
 1655061794419.66430664062,-0.04150390625,-0.08435058593,-1.02087402343,,,,,,,,
 1655061794448.9306640625,,,,,,5974,-11895,2987,0,
 1655061794490.12939453125,,,,,,6014,-12674,3007,0,
 1655061794499.7119140625,-0.04016113281,-0.08520507812,-1.02844238281,,,,,,,,
 1655061794531.328125,,,,,,6062,-12599,3031,0,
 1655061794571.9775390625,,,,,,6070,-11760,3035,0,
 1655061794580.18676757812,-0.04064941406,-0.08666992187,-1.02478027343,,,,,,,,
 1655061794613.66455078125,,,,,,6078,-10213,3039,0,
 1655061794654.31396484375,,,,,,6078,-8113,3039,0,
 1655061794663.59130859375,-0.03771972656,-0.08947753906,-1.02087402343,,,,,,,,
 1655061794695.78735351562,,,,,,6110,-5654,3055,0,
 1655061794739.4580078125,,,,,,6126,-3070,3063,0,
 1655061794778.00170898437,,,,,,6142,-605,3071,0,
 1655061794821.94702148437,,,,,,6142,1569,3071,0,
 1655061794862.29125976562,,,,,,,,,,67
 1655061794865.12939453125,,,,,,6142,3298,3071,0,
 1655061794904.4970703125,-0.03479003906,-0.08837890625,-1.03100585937,,,,,,,,
 1655061794908.49487304687,,,,,,6126,4441,3063,0,
 1655061794942.79663085937,,,,,,6110,4900,3055,0,
 1655061794987.41333007812,-0.03601074218,-0.08508300781,-1.02380371093,,,,,,,,
 1655061794991.4111328125,,,,,,6078,4646,3039,0,
 1655061794997.17895507812,,,,66,96,,,,
 1655061795025.46875,,,,,,6062,3715,3031,0,
 1655061795090.56274414062,0.03637695312,0.02282714843,-0.8505859375,,,,,,,,
 1655061795148.11889648437,0.06811523437,-0.017578125,-0.76879882812,,,,,,,,
 1655061795152.48291015625,,,,,,5982,198,2991,0,
 1655061795190.08056640625,,,,,,5950,-2062,2975,0,
 1655061795226.70166015625,0.0068359375,-0.1416015625,-0.89953613281,,,,,,,,
 1655061795235.03295898437,,,,,,5918,-4410,2959,0,
 1655061795272.4169921875,,,,,,5878,-6669,2939,0,
 1655061795299.21142578125,-0.01965332031,-0.11193847656,-0.96350097656,,,,,,,,
 1655061795313.61572265625,,,,,,5854,-8638,2927,0,
 1655061795354.53979492187,,,,,,5854,-10152,2927,0,
 1655061795379.50317382812,-0.02795410156,-0.0908203125,-0.99865722656,,,,,,,,
 1655061795395.76904296875,,,,,,5934,-11053,2967,0,
 1655061795436.81518554687,,,,,,6014,-11300,3007,0,
 1655061795460.55786132812,-0.02966308593,-0.08520507812,-1.0107421875,,,,,,,,
 1655061795478.10546875,,,,,,6078,-10865,3039,0,
 1655061795519.09057617187,,,,,,6110,-9787,3055,0,
 1655061795539.32373046875,-0.03466796875,-0.08972167968,-1.0185546875,,,,,,,,
 1655061795560.59448242187,,,,,,6142,-8167,3071,0,
 1655061795601.48803710937,,,,,,6126,-6177,3063,0,
 1655061795619.73754882812,-0.04113769531,-0.08874511718,-1.02734375,,,,,,,,
 1655061795642.7783203125,,,,,,6142,-3944,3071,0,
 1655061795683.70239257812,,,,,,6142,-1668,3071,0,
 1655061795699.4189453125,-0.04626464843,-0.09045410156,-1.02001953125,,,,,,,,
 1655061795725.26733398437,,,,,,6142,433,3071,0,
 1655061795766.00830078125,,,,,,6142,2217,3071,0,
 1655061795779.130859375,-0.04455566406,-0.09020996093,-1.01452636718,,,,,,,,
 1655061795807.51220703125,,,,,,6190,3505,3095,0,
 1655061795863.14575195312,,,,,,,,,,66
 1655061795866.07543945312,-0.04260253906,-0.08996582031,-1.02038574218,,,,,,,,
 1655061795870.16479492187,,,,,,6142,4175,3071,0,
 1655061795891.09985351562,,,,,,6142,4152,3071,0,
 1655061795897.05078125,,,,66,96,,,,
 1655061795930.83374023437,,,,,,6126,3469,3063,0,
 1655061795939.74487304687,-0.04174804687,-0.09204101562,-1.02514648437,,,,,,,,
 1655061795972.06298828125,,,,,,6110,2147,3055,0,
 1655061796012.98706054687,,,,,,6078,337,3039,0,
 1655061796021.25732421875,-0.03723144531,-0.08361816406,-1.0283203125,,,,,,,,
 1655061796103.68530273437,-0.0361328125,-0.08178710937,-1.02673339843,,,,,,,,
 1655061796180.55908203125,,,,,,5982,-4089,2991,0,
 1655061796219.01123046875,,,,,,5934,-6275,2967,0,
 1655061796263.017578125,-0.03942871093,-0.08569335937,-1.02770996093,,,,,,,,
 1655061796267.0458984375,,,,,,5886,-8163,2943,0,
 1655061796301.8359375,,,,,,5870,-9545,2935,0,
 1655061796345.47607421875,-0.03820800781,-0.08996582031,-1.02746582031,,,,,,,,
 1655061796349.5654296875,,,,,,5822,-10305,2911,0,
 1655061796384.14184570312,,,,,,5806,-10341,2903,0,
 1655061796427.65991210937,-0.03967285156,-0.08374023437,-1.02746582031,,,,,,,,
 1655061796431.68823242187,,,,,,5886,-9606,2943,0,
 1655061796466.5087890625,,,,,,5950,-8165,2975,0,
 1655061796500.04760742187,-0.07275390625,-0.18505859375,-1.087890625,,,,,,,,
 1655061796548.35693359375,,,,,,6046,-6166,3023,0,
 1655061796579.1796875,-0.05480957031,-0.158203125,-1.05554199218,,,,,,,,
 1655061796592.66845703125,,,,,,6046,-3841,3023,0,
 1655061796631.12060546875,,,,,,6062,-1363,3031,0,
 1655061796659.22729492187,-0.01611328125,-0.04260253906,-0.97998046875,,,,,,,,
 1655061796672.34985351562,,,,,,6046,999,3023,0,
 1655061796713.45703125,,,,,,6046,3030,3023,0,
 1655061796738.9697265625,-0.02734375,-0.06787109375,-1.00317382812,,,,,,,,
 1655061796754.13696289062,,,,,,6062,4494,3031,0,
 1655061796795.48828125,,,,,,6062,5235,3031,0,
 1655061796819.2919921875,-0.03356933593,-0.07861328125,-1.01086425781,,,,,,,,
 1655061796838.0908203125,,,,,,6070,5141,3035,0,
 1655061796843.49243164062,,,,64,100,,,,
 1655061796862.10815429687,,,,,,,,,,66
 1655061796878.03833007812,,,,,,6046,4195,3023,0,
 1655061796899.06494140625,-0.03649902343,-0.08044433593,-1.017578125,,,,,,,,
 1655061796919.48120117187,,,,,,6014,2471,3007,0,
 1655061796960.49682617187,,,,,,6006,143,3003,0,
 1655061796979.14306640625,-0.03576660156,-0.08752441406,-1.03002929687,,,,,,,,
 1655061797001.48193359375,,,,,,5982,-2612,2991,0,
 1655061797096.513671875,-0.03955078125,-0.09814453125,-1.03796386718,,,,,,,,
 1655061797100.57250976562,,,,,,5950,-5539,2975,0,
 1655061797125.078125,,,,,,5886,-10804,2943,0,
 1655061797139.32983398437,-0.04040527343,-0.09997558593,-1.03540039062,,,,,,,,
 1655061797166.12426757812,,,,,,5854,-12626,2927,0,
 1655061797207.50610351562,,,,,,5822,-13667,2911,0,
 1655061797218.88916015625,-0.04174804687,-0.095703125,-1.03112792968,,,,,,,,
 1655061797248.15551757812,,,,,,5782,-13802,2891,0,
 1655061797289.56787109375,,,,,,5742,-13049,2871,0,
 1655061797300.15747070312,-0.04235839843,-0.09362792968,-1.02697753906,,,,,,,,
 1655061797330.70556640625,,,,,,5710,-11453,2855,0,
 1655061797371.7822265625,,,,,,5678,-9183,2839,0,
 1655061797380.14404296875,-0.03955078125,-0.09265136718,-1.0302734375,,,,,,,,
 1655061797454.11865234375,,,,,,5758,-6412,2879,0,
 1655061797462.48046875,-0.03930664062,-0.08813476562,-1.02551269531,,,,,,,,
 1655061797495.439453125,,,,,,5822,-3410,2911,0,
 1655061797539.04907226562,,,,,,5838,-485,2919,0,
 1655061797577.71484375,,,,,,5850,2035,2925,0,
 1655061797621.47705078125,,,,,,5822,3982,2911,0,
 1655061797660.05126953125,,,,,,5790,5180,2895,0,
 1655061797705.09521484375,-0.03784179687,-0.09167480468,-1.01550292968,,,,,,,,
 1655061797709.52026367187,,,,,,5790,5543,2895,0,
 1655061797787.64526367187,-0.04052734375,-0.0927734375,-1.01452636718,,,,,,,,
 1655061797792.03979492187,,,,,,5806,5050,2903,0,
 1655061797797.53295898437,,,,64,100,,,,
 1655061797824.84619140625,,,,,,5782,3741,2891,0,
 1655061797851.57958984375,,,,,,,,,,65
 1655061797859.27001953125,-0.03552246093,-0.08813476562,-1.01196289062,,,,,,,,
 1655061797906.87744140625,,,,,,5742,1740,2871,0,
 1655061797943.92578125,0.03759765625,-0.02038574218,-0.90344238281,,,,,,,,
 1655061797952.2265625,,,,,,5694,-753,2847,0,
 1655061797989.76318359375,,,,,,5678,-3451,2839,0,
 1655061798018.93798828125,0.10717773437,0.08850097656,-0.82055664062,,,,,,,,
 1655061798032.45727539062,,,,,,5630,-6132,2815,0,
 1655061798098.43627929687,,,,,,5598,-8536,2799,0,
 1655061798117.57080078125,,,,,,5566,-10456,2783,0,
 1655061798154.22241210937,,,,,,5534,-11716,2767,0,
 1655061798178.97216796875,0.01086425781,-0.01171875,-0.96276855468,,,,,,,,
 1655061798195.20751953125,,,,,,5502,-12192,2751,0,
 1655061798236.46728515625,,,,,,5470,-11861,2735,0,
 1655061798259.05029296875,-0.013671875,-0.05859375,-1.00036621093,,,,,,,,
 1655061798277.69653320312,,,,,,5438,-10741,2719,0,
 1655061798318.74267578125,,,,,,5438,-8940,2719,0,
 1655061798339.0673828125,-0.02612304687,-0.0732421875,-1.01989746093,,,,,,,,
 1655061798360.03295898437,,,,,,5486,-6589,2743,0,
 1655061798401.0791015625,,,,,,5550,-3913,2775,0,
 1655061798419.96948242187,-0.03295898437,-0.07897949218,-1.02697753906,,,,,,,,
 1655061798442.55249023437,,,,,,5566,-1121,2783,0,
 1655061798483.41552734375,,,,,,5590,1565,2795,0,
 1655061798499.13208007812,-0.03625488281,-0.08483886718,-1.029296875,,,,,,,,
 1655061798524.43115234375,,,,,,5566,3901,2783,0,
 1655061798565.751953125,,,,,,5550,5698,2775,0,
 1655061798578.72192382812,-0.03771972656,-0.08129882812,-1.0302734375,,,,,,,,
 1655061798607.28637695312,,,,,,5534,6814,2767,0,
 1655061798648.08837890625,,,,,,5534,7174,2767,0,
 1655061798658.6474609375,-0.03735351562,-0.07751464843,-1.02868652343,,,,,,,,
 1655061798690.05004882812,,,,,,5534,6785,2767,0,
 1655061798695.84838867187,,,,64,100,,,,
 1655061798730.60791015625,,,,,,5534,5676,2767,0,
 1655061798739.00024414062,-0.04028320312,-0.08203125,-1.02587890625,,,,,,,,
 1655061798771.47094726562,,,,,,5502,3922,2751,0,
 1655061798812.79174804687,,,,,,5494,1669,2747,0,
 1655061798821.18408203125,-0.03967285156,-0.08410644531,-1.021484375,,,,,,,,
 1655061798861.10107421875,,,,,,,,,,65
 1655061798864.3359375,,,,,,5470,-957,2735,0,
 1655061798898.1494140625,,,,,,5438,-3743,2719,0,
 1655061798936.11328125,,,,,,5406,-6466,2703,0,
 1655061798980.15014648437,,,,,,5374,-8946,2687,0,
 1655061799018.6328125,,,,,,5342,-11022,2671,0,
 1655061799098.31420898437,-0.04321289062,-0.08374023437,-1.01843261718,,,,,,,,
 1655061799102.40356445312,,,,,,5310,-12541,2655,0,
 1655061799146.4404296875,-0.0419921875,-0.08703613281,-1.02941894531,,,,,,,,
 1655061799151.10961914062,,,,,,5246,-13537,2623,0,
 1655061799183.45825195312,,,,,,5230,-12927,2615,0,
 1655061799227.46459960937,-0.03833007812,-0.08447265625,-1.0283203125,,,,,,,,
 1655061799231.8896484375,,,,,,5278,-11623,2639,0,
 1655061799265.88623046875,,,,,,5342,-9709,2671,0,
 1655061799298.63159179687,-0.03662109375,-0.0810546875,-1.02258300781,,,,,,,,
 1655061799347.76489257812,,,,,,5422,-7333,2711,0,
 1655061799378.52661132812,0.03295898437,-0.07116699218,-1.01782226562,,,,,,,,
 1655061799392.22900390625,,,,,,5422,-4687,2711,0,
 1655061799430.986328125,,,,,,5422,-1963,2711,0,
 1655061799458.72680664062,0.00915527343,-0.09582519531,-1.07397460937,,,,,,,,
 1655061799472.33764648437,,,,,,5406,652,2703,0,
 1655061799512.98706054687,,,,,,5422,2947,2711,0,
 1655061799538.56079101562,-0.0478515625,-0.06970214843,-1.05737304687,,,,,,,,
 1655061799553.9111328125,,,,,,5422,4750,2711,0,
 1655061799594.89624023437,,,,,,5438,5918,2719,0,
 1655061799618.486328125,-0.01818847656,-0.02844238281,-0.99438476562,,,,,,,,
 1655061799636.30859375,,,,,,5430,6358,2715,0,
 1655061799677.96508789062,,,,,,5422,6044,2711,0,
 1655061799683.82446289062,,,,63,100,,,,
 1655061799698.86962890625,-0.029296875,-0.05395507812,-1.01611328125,,,,,,,,
 1655061799718.52294921875,,,,,,5406,5017,2703,0,
 1655061799759.53857421875,,,,,,5374,3316,2687,0,
 1655061799778.5205078125,-0.03552246093,-0.06164550781,-1.02514648437,,,,,,,,
 1655061799800.7373046875,,,,,,5342,1070,2671,0,
 1655061799859.51416015625,,,,,,,,,,65
 1655061799862.626953125,,,,,,5310,-1561,2655,0,
 1655061799883.19580078125,,,,,,5302,-4346,2651,0,
 1655061799924.33349609375,,,,,,5270,-7085,2635,0,
 1655061799939.92797851562,-0.04602050781,-0.0751953125,-1.025390625,,,,,,,,
 1655061799965.41015625,,,,,,5246,-9536,2623,0,
 1655061800006.70043945312,,,,,,5214,-11532,2607,0,
 1655061800018.48022460937,-0.04858398437,-0.07788085937,-1.03271484375,,,,,,,,
 1655061800097.91748046875,,,,,,5198,-12907,2599,0,
 1655061800112.32177734375,,,,,,5214,-13548,2607,0,
 1655061800130.3271484375,,,,,,5310,-13361,2655,0,
 1655061800171.8310546875,,,,,,5374,-12376,2687,0,
 1655061800180.25390625,-0.04211425781,-0.08630371093,-1.03088378906,,,,,,,,
 1655061800212.44995117187,,,,,,5454,-10653,2727,0,
 1655061800254.13696289062,,,,,,5470,-8392,2735,0,
 1655061800262.43774414062,-0.04150390625,-0.08508300781,-1.02587890625,,,,,,,,
 1655061800294.93896484375,,,,,,5502,-5739,2751,0,
 1655061800339.46411132812,,,,,,5502,-2927,2751,0,
 1655061800377.06176757812,,,,,,5502,-182,2751,0,
 1655061800421.19018554687,,,,,,5534,2321,2767,0,
 1655061800459.4287109375,,,,,,5566,4380,2783,0,
 1655061800503.80126953125,-0.03649902343,-0.0888671875,-1.02587890625,,,,,,,,
 1655061800508.16528320312,,,,,,5566,5831,2783,0,
 1655061800542.0703125,,,,,,5566,6551,2783,0,
 1655061800586.90063476562,-0.03051757812,-0.08422851562,-1.0224609375,,,,,,,,
 1655061800591.142578125,,,,,,5566,6512,2783,0,
 1655061800597.06298828125,,,,64,100,,,,
 1655061800624.31518554687,,,,,,5558,5725,2779,0,
 1655061800658.55590820312,-0.03198242187,-0.08203125,-1.01574707031,,,,,,,,
 1655061800706.4990234375,,,,,,5502,4274,2751,0,
 1655061800739.51904296875,-0.03674316406,-0.08825683593,-1.00830078125,,,,,,,,
 1655061800788.86596679687,,,,,,5470,2302,2735,0,
 1655061800818.37646484375,0.07043457031,-0.0537109375,-0.96423339843,,,,,,,,
 1655061800832.13989257812,,,,,,5438,8,2719,0,
 1655061800852.58666992187,,,,,,,,,,65
 1655061800871.62963867187,,,,,,5438,-2417,2719,0,
 1655061800898.79028320312,0.1923828125,0.0478515625,-0.81555175781,,,,,,,,
 1655061800913.408203125,,,,,,5406,-4783,2703,0,
 1655061800953.72192382812,,,,,,5374,-6875,2687,0,
 1655061800978.31909179687,0.13977050781,0.05456542968,-0.76599121093,,,,,,,,
 1655061800995.1953125,,,,,,5398,-8489,2699,0,
 1655061801036.0888671875,,,,,,5486,-9492,2743,0,
 1655061801105.1806640625,0.04333496093,-0.0224609375,-0.87622070312,,,,,,,,
 1655061801114.64111328125,,,,,,5566,-9832,2783,0,
 1655061801138.68896484375,-0.00256347656,-0.05847167968,-0.95690917968,,,,,,,,
 1655061801159.92919921875,,,,,,5694,-8495,2847,0,
 1655061801201.03637695312,,,,,,5726,-7004,2863,0,
 1655061801218.27880859375,-0.02087402343,-0.0751953125,-0.99340820312,,,,,,,,
 1655061801242.44873046875,,,,,,5742,-5169,2871,0,
 1655061801283.09814453125,,,,,,5758,-3168,2879,0,
 1655061801298.60107421875,-0.03051757812,-0.0830078125,-1.00939941406,,,,,,,,
 1655061801324.63256835937,,,,,,5790,-1183,2895,0,
 1655061801365.46508789062,,,,,,5822,585,2911,0,
 1655061801379.68627929687,-0.03930664062,-0.08666992187,-1.02209472656,,,,,,,,
 1655061801406.90795898437,,,,,,5854,1984,2927,0,
 1655061801447.80151367187,,,,,,5854,2823,2927,0,
 1655061801458.23852539062,-0.04125976562,-0.08215332031,-1.02490234375,,,,,,,,
 1655061801489.15283203125,,,,,,5854,3081,2927,0,
 1655061801530.74829101562,,,,,,5854,2693,2927,0,
 1655061801539.20166015625,,,,64,100,,,,
 1655061801543.53515625,-0.0390625,-0.06958007812,-1.02819824218,,,,,,,,
 1655061801571.39770507812,,,,,,5846,1703,2923,0,
 1655061801613.17626953125,,,,,,5822,177,2911,0,
 1655061801621.47705078125,-0.0390625,-0.07006835937,-1.02978515625,,,,,,,,
 1655061801653.7646484375,,,,,,5814,-1741,2907,0,
 1655061801697.587890625,,,,,,5790,-3889,2895,0,
 1655061801703.23364257812,-0.0390625,-0.07641601562,-1.02954101562,,,,,,,,
 1655061801736.10107421875,,,,,,5790,-6046,2895,0,
 1655061801778.2763671875,-0.03381347656,-0.07836914062,-1.02526855468,,,,,,,,
 1655061801818.28491210937,,,,,,5742,-8057,2871,0,
 1655061801851.94580078125,,,,,,,,,,65
 1655061801858.5986328125,-0.03137207031,-0.08459472656,-1.02014160156,,,,,,,,
 1655061801901.26220703125,,,,,,5694,-9739,2847,0,
 1655061801944.74975585937,-0.03955078125,-0.0947265625,-1.02600097656,,,,,,,,
 1655061801948.9306640625,,,,,,5678,-10937,2839,0,
 1655061801983.14086914062,,,,,,5742,-11512,2871,0,
 1655061802027.0556640625,-0.04553222656,-0.09948730468,-1.02355957031,,,,,,,,
 1655061802031.29760742187,,,,,,5822,-11416,2911,0,
 1655061802098.5888671875,,,,,,5934,-10641,2967,0,
 1655061802147.783203125,,,,,,6014,-9294,3007,0,
 1655061802178.11767578125,-0.03881835937,-0.0888671875,-1.0224609375,,,,,,,,
 1655061802191.728515625,,,,,,6046,-7475,3023,0,
 1655061802230.11962890625,,,,,,6046,-5335,3023,0,
 1655061802258.34838867187,0.01416015625,-0.08837890625,-0.99792480468,,,,,,,,
 1655061802272.23388671875,,,,,,6078,-3039,3039,0,
 1655061802312.42553710937,,,,,,6110,-777,3055,0,
 1655061802338.39599609375,0.07543945312,-0.04443359375,-0.9375,,,,,,,,
 1655061802354.05151367187,,,,,,6134,1270,3067,0,
 1655061802394.70092773437,,,,,,6142,2928,3071,0,
 1655061802418.07739257812,0.05187988281,-0.01135253906,-0.89379882812,,,,,,,,
 1655061802436.38793945312,,,,,,6142,4053,3071,0,
 1655061802476.91528320312,,,,,,6142,4560,3071,0,
 1655061802498.43017578125,0.00756835937,-0.03869628906,-0.92333984375,,,,,,,,
 1655061802519.33471679687,,,,,,6134,4409,3067,0,
 1655061802525.37719726562,,,,64,100,,,,
 1655061802559.404296875,,,,,,6126,3621,3063,0,
 1655061802578.50830078125,-0.01416015625,-0.06604003906,-0.97778320312,,,,,,,,
 1655061802600.93872070312,,,,,,6110,2268,3055,0,
 1655061802641.5576171875,,,,,,6078,450,3039,0,
 1655061802658.037109375,-0.02844238281,-0.07666015625,-1.00732421875,,,,,,,,
 1655061802683.24462890625,,,,,,6062,-1678,3031,0,
 1655061802724.38232421875,,,,,,6046,-3932,3023,0,
 1655061802738.20678710937,-0.0361328125,-0.08276367187,-1.01806640625,,,,,,,,
 1655061802765.64208984375,,,,,,6014,-6144,3007,0,
 1655061802806.44409179687,,,,,,5982,-8103,2991,0,
 1655061802818.37646484375,-0.03979492187,-0.08752441406,-1.02087402343,,,,,,,,
 1655061802861.13159179687,,,,,,,,,,65
 1655061802864.24438476562,,,,,,5950,-9660,2975,0,
 1655061802888.93310546875,,,,,,5918,-10683,2959,0,
 1655061802899.1259765625,-0.03833007812,-0.09301757812,-1.02331542968,,,,,,,,
 1655061802930.19287109375,,,,,,5886,-11089,2943,0,
 1655061802971.11694335937,,,,,,5950,-10794,2975,0,
 1655061802979.60083007812,-0.03247070312,-0.09033203125,-1.025390625,,,,,,,,
 1655061803012.55981445312,,,,,,6046,-9824,3023,0,
 1655061803098.61938476562,-0.03076171875,-0.0859375,-1.02954101562,,,,,,,,
 1655061803102.95288085937,,,,,,6110,-8247,3055,0,
 1655061803138.84155273437,,,,,,6142,-3924,3071,0,
 1655061803177.47680664062,,,,,,6142,-1539,3071,0,
 1655061803220.81176757812,,,,,,6190,755,3095,0,
 1655061803259.29443359375,,,,,,6190,2724,3095,0,
 1655061803303.20922851562,-0.04174804687,-0.08349609375,-1.03930664062,,,,,,,,
 1655061803307.42065429687,,,,,,6206,4212,3103,0,
 1655061803341.81396484375,,,,,,6230,5077,3115,0,
 1655061803385.576171875,-0.04443359375,-0.08068847656,-1.03601074218,,,,,,,,
 1655061803389.7265625,,,,,,6238,5220,3119,0,
 1655061803425.0048828125,,,,,,6206,4600,3103,0,
 1655061803430.58959960937,,,,65,100,,,,
 1655061803459.15405273437,-0.04675292968,-0.08142089843,-1.0302734375,,,,,,,,
 1655061803506.27319335937,,,,,,6142,3249,3071,0,
 1655061803543.046875,-0.04577636718,-0.08386230468,-1.02661132812,,,,,,,,
 1655061803551.43920898437,,,,,,6142,1266,3071,0,
 1655061803588.91479492187,,,,,,6126,-1155,3063,0,
 1655061803617.8759765625,-0.04431152343,-0.083984375,-1.02075195312,,,,,,,,
 1655061803631.73095703125,,,,,,6110,-3830,3055,0,
 1655061803671.15966796875,,,,,,6078,-6524,3039,0,
 1655061803698.10668945312,-0.04150390625,-0.08190917968,-1.01586914062,,,,,,,,
 1655061803712.78564453125,,,,,,6046,-8998,3023,0,
 1655061803753.28247070312,,,,,,6014,-11028,3007,0,
 1655061803779.16137695312,-0.03076171875,-0.08410644531,-1.00524902343,,,,,,,,
 1655061803795.15258789062,,,,,,5982,-12422,2991,0,
 1655061803835.98510742187,,,,,,5934,-13045,2967,0,
 1655061803859.11743164062,,,,,,,,,,64
 1655061803862.19970703125,0.00646972656,0.01489257812,-1.00341796875,,,,,,,,
 1655061803877.51953125,,,,,,5918,-12829,2959,0,
 1655061803917.98583984375,,,,,,5950,-11757,2975,0,
 1655061803938.21899414062,0.015625,0.06323242187,-1.02038574218,,,,,,,,
 1655061803960.10009765625,,,,,,6014,-9941,3007,0,
 1655061804000.322265625,,,,,,6078,-7510,3039,0,
 1655061804018.17504882812,-0.01354980468,-0.01318359375,-1.02514648437,,,,,,,,
 1655061804093.03466796875,,,,,,6110,-4678,3055,0,
 1655061804110.09399414062,,,,,,6102,-1745,3051,0,
 1655061804165.02563476562,,,,,,6078,1047,3039,0,
 1655061804178.02612304687,-0.03039550781,-0.06457519531,-1.02331542968,,,,,,,,
 1655061804206.71264648437,,,,,,6078,3428,3039,0,
 1655061804247.30102539062,,,,,,6078,5216,3039,0,
 1655061804258.07373046875,-0.03088378906,-0.078125,-1.01818847656,,,,,,,,
 1655061804289.04907226562,,,,,,6078,6228,3039,0,
 1655061804329.66796875,,,,,,6062,6365,3031,0,
 1655061804337.99926757812,-0.0341796875,-0.08447265625,-1.01477050781,,,,,,,,
 1655061804372.7587890625,,,,,,6046,5612,3023,0,
 1655061804378.80126953125,,,,64,100,,,,
 1655061804412.15698242187,,,,,,6014,4024,3007,0,
 1655061804420.57983398437,-0.03576660156,-0.08422851562,-1.01733398437,,,,,,,,
 1655061804453.87451171875,,,,,,5982,1755,2991,0,
 1655061804497.17895507812,,,,,,5950,-1000,2975,0,
 1655061804502.763671875,-0.03332519531,-0.08618164062,-1.02258300781,,,,,,,,
 1655061804536.05834960937,,,,,,5934,-3976,2967,0,
 1655061804579.66796875,,,,,,5886,-6909,2943,0,
 1655061804618.08959960937,,,,,,5870,-9534,2935,0,
 1655061804663.10302734375,-0.03942871093,-0.08239746093,-1.02319335937,,,,,,,,
 1655061804667.13134765625,,,,,,5822,-11617,2911,0,
 1655061804701.09741210937,,,,,,5790,-12957,2895,0,
 1655061804744.37133789062,-0.04333496093,-0.0791015625,-1.02331542968,,,,,,,,
 1655061804748.46069335937,,,,,,5758,-13447,2879,0,
 1655061804783.00659179687,,,,,,5790,-13010,2895,0,
 1655061804826.67724609375,-0.04626464843,-0.07556152343,-1.02746582031,,,,,,,,
 1655061804830.888671875,,,,,,5854,-11688,2927,0,
 1655061804852.4951171875,,,,,,,,,,64
 1655061804865.37353515625,,,,,,5886,-9620,2943,0,
 1655061804897.783203125,-0.04553222656,-0.07592773437,-1.02746582031,,,,,,,,
 1655061804947.587890625,,,,,,5934,-6990,2967,0,
 1655061804977.83081054687,-0.04211425781,-0.07604980468,-1.01904296875,,,,,,,,
 1655061804991.31958007812,,,,,,5886,-4069,2943,0,
 1655061805030.41259765625,,,,,,5878,-1084,2939,0,
 1655061805099.22973632812,-0.04150390625,-0.076171875,-1.01721191406,,,,,,,,
 1655061805108.38500976562,,,,,,5878,1709,2939,0,
 1655061805137.8955078125,-0.04223632812,-0.07934570312,-1.02673339843,,,,,,,,
 1655061805153.91723632812,,,,,,5886,5631,2943,0,
 1655061805195.2685546875,,,,,,5886,6455,2943,0,
 1655061805219.53002929687,-0.06970214843,-0.19543457031,-1.0791015625,,,,,,,,
 1655061805236.68090820312,,,,,,5870,6419,2935,0,
 1655061805242.6318359375,,,,64,100,,,,
 1655061805277.20825195312,,,,,,5822,5527,2911,0,
 1655061805297.685546875,-0.05651855468,-0.224609375,-1.18176269531,,,,,,,,
 1655061805318.46801757812,,,,,,5822,3891,2911,0,
 1655061805359.0869140625,,,,,,5782,1617,2891,0,
 1655061805377.97729492187,-0.03576660156,-0.10900878906,-1.1806640625,,,,,,,,
 1655061805441.42333984375,,,,,,5726,-1088,2863,0,
 1655061805457.78076171875,-0.05004882812,-0.07800292968,-1.0947265625,,,,,,,,
 1655061805483.14086914062,,,,,,5686,-3968,2843,0,
 1655061805523.79028320312,,,,,,5662,-6772,2831,0,
 1655061805537.5537109375,-0.04516601562,-0.07495117187,-1.05139160156,,,,,,,,
 1655061805565.44677734375,,,,,,5678,-9247,2839,0,
 1655061805606.12670898437,,,,,,5726,-11190,2863,0,
 1655061805617.78442382812,-0.0419921875,-0.07568359375,-1.03332519531,,,,,,,,
 1655061805647.99682617187,,,,,,5806,-12421,2903,0,
 1655061805688.46313476562,,,,,,5870,-12823,2935,0,
 1655061805698.83911132812,-0.03833007812,-0.080078125,-1.0322265625,,,,,,,,
 1655061805730.15014648437,,,,,,5886,-12381,2943,0,
 1655061805770.79956054687,,,,,,5886,-11127,2943,0,
 1655061805779.19189453125,-0.03967285156,-0.0791015625,-1.02648925781,,,,,,,,
 1655061805812.63916015625,,,,,,5886,-9171,2943,0,
 1655061805863.9697265625,,,,,,,,,,65
 1655061805866.71630859375,-0.04138183593,-0.07958984375,-1.01965332031,,,,,,,,
 1655061805871.14135742187,,,,,,5886,-6682,2943,0,
 1655061805894.82299804687,,,,,,5886,-3866,2943,0,
 1655061805938.46313476562,,,,,,5886,-957,2943,0,
 1655061805976.82373046875,,,,,,5918,1813,2959,0,
 1655061806021.10473632812,,,,,,5886,4179,2943,0,
 1655061806099.16870117187,,,,,,5886,5997,2943,0,
 1655061806113.93920898437,,,,,,5886,7101,2943,0,
 1655061806142.10693359375,,,,,,5854,7418,2927,0,
 1655061806186.2353515625,-0.03955078125,-0.06799316406,-1.02954101562,,,,,,,,
 1655061806190.29418945312,,,,,,5822,6930,2911,0,
 1655061806196.21459960937,,,,64,100,,,,
 1655061806223.98559570312,,,,,,5806,5683,2903,0,
 1655061806257.37182617187,-0.03308105468,-0.0712890625,-1.0283203125,,,,,,,,
 1655061806306.29150390625,,,,,,5758,3764,2879,0,
 1655061806342.69897460937,-0.04040527343,-0.0791015625,-1.02368164062,,,,,,,,
 1655061806351.45751953125,,,,,,5742,1330,2871,0,
 1655061806388.78051757812,,,,,,5806,-1410,2903,0,
 1655061806417.58911132812,-0.044921875,-0.08276367187,-1.0224609375,,,,,,,,
 1655061806431.07788085937,,,,,,5886,-4230,2943,0,
 1655061806471.025390625,,,,,,5982,-6912,2991,0,
 1655061806497.57568359375,-0.04077148437,-0.08142089843,-1.02197265625,,,,,,,,
 1655061806512.13256835937,,,,,,6014,-9283,3007,0,
 1655061806553.36181640625,,,,,,6062,-11145,3031,0,
 1655061806577.65380859375,-0.03979492187,-0.08068847656,-1.0185546875,,,,,,,,
 1655061806594.62158203125,,,,,,6078,-12378,3039,0,
 1655061806635.85083007812,,,,,,6078,-12920,3039,0,
 1655061806658.67797851562,0.03149414062,-0.03771972656,-1.00964355468,,,,,,,,
 1655061806677.11059570312,,,,,,6102,-12735,3051,0,
 1655061806718.15673828125,,,,,,6126,-11856,3063,0,
 1655061806737.5048828125,0.1533203125,-0.02380371093,-1.00134277343,,,,,,,,
 1655061806759.29443359375,,,,,,6142,-10375,3071,0,
 1655061806800.21850585937,,,,,,6142,-8423,3071,0,
 1655061806817.73559570312,0.12365722656,-0.07678222656,-1.01416015625,,,,,,,,
 1655061806857.95776367187,,,,,,,,,,65
 1655061806861.0400390625,,,,,,6142,-6151,3071,0,
 1655061806882.7685546875,,,,,,6142,-3759,3071,0,
 1655061806897.6611328125,0.02124023437,-0.09729003906,-1.02844238281,,,,,,,,
 1655061806923.90625,,,,,,6142,-1435,3071,0,
 1655061806964.95239257812,,,,,,6142,624,3071,0,
 1655061806978.28857421875,-0.0087890625,-0.09020996093,-1.03308105468,,,,,,,,
 1655061807006.42578125,,,,,,6126,2302,3063,0,
 1655061807098.49731445312,-0.02380371093,-0.08386230468,-1.04150390625,,,,,,,,
 1655061807102.70874023437,,,,,,6106,3473,3053,0,
 1655061807130.66284179687,,,,,,6062,4019,3031,0,
 1655061807139.482421875,,,,64,100,,,,
 1655061807143.20556640625,-0.03295898437,-0.08605957031,-1.0380859375,,,,,,,,
 1655061807170.91552734375,,,,,,6046,3342,3023,0,
 1655061807212.32788085937,,,,,,6014,2084,3007,0,
 1655061807220.87280273437,-0.03833007812,-0.08703613281,-1.0302734375,,,,,,,,
 1655061807253.55712890625,,,,,,5998,377,2999,0,
 1655061807296.8310546875,,,,,,6046,-1612,3023,0,
 1655061807302.75146484375,-0.03869628906,-0.08752441406,-1.0234375,,,,,,,,
 1655061807335.74096679687,,,,,,6142,-3715,3071,0,
 1655061807379.28955078125,,,,,,6254,-5746,3127,0,
 1655061807417.89428710937,,,,,,6318,-7545,3159,0,
 1655061807461.8701171875,-0.04211425781,-0.08227539062,-1.02355957031,,,,,,,,
 1655061807465.92895507812,,,,,,6334,-8943,3167,0,
 1655061807500.26123046875,,,,,,6366,-9793,3183,0,
 1655061807545.21362304687,-0.03942871093,-0.0810546875,-1.0224609375,,,,,,,,
 1655061807549.30297851562,,,,,,6382,-10018,3191,0,
 1655061807582.90283203125,,,,,,6398,-9592,3199,0,
 1655061807626.51245117187,-0.0361328125,-0.08056640625,-1.01672363281,,,,,,,,
 1655061807630.5712890625,,,,,,6430,-8543,3215,0,
 1655061807697.13012695312,-0.03344726562,-0.08349609375,-1.01708984375,,,,,,,,
 1655061807747.23999023437,,,,,,6462,-6943,3231,0,
 1655061807777.2998046875,-0.02917480468,-0.07958984375,-1.02258300781,,,,,,,,
 1655061807791.27685546875,,,,,,6462,-4940,3231,0,
 1655061807830.06469726562,,,,,,6446,-2741,3223,0,
 1655061807852.06787109375,,,,,,,,,,65
 1655061807858.29345703125,-0.02819824218,-0.08093261718,-1.02819824218,,,,,,,,
 1655061807872.57568359375,,,,,,6430,-524,3215,0,
 1655061807911.943359375,,,,,,6398,1484,3199,0,
 1655061807937.08984375,-0.03186035156,-0.08264160156,-1.0361328125,,,,,,,,
 1655061807952.958984375,,,,,,6382,3103,3191,0,
 1655061807994.27978515625,,,,,,6366,4160,3183,0,
 1655061808017.412109375,-0.03771972656,-0.08227539062,-1.03247070312,,,,,,,,
 1655061808035.6005859375,,,,,,6350,4567,3175,0,
 1655061808102.83081054687,,,,,,6318,4272,3159,0,
 1655061808108.62915039062,,,,64,100,,,,
 1655061808159.013671875,,,,,,6270,3266,3135,0,
 1655061808177.29370117187,-0.18188476562,-0.21899414062,-1.177734375,,,,,,,,
 1655061808200.30395507812,,,,,,6238,1620,3119,0,
 1655061808241.2890625,,,,,,6206,-497,3103,0,
 1655061808257.49389648437,-0.13269042968,-0.14904785156,-1.09851074218,,,,,,,,
 1655061808282.27416992187,,,,,,6238,-2859,3119,0,
 1655061808337.14477539062,-0.08166503906,-0.10705566406,-1.06677246093,,,,,,,,
 1655061808364.82421875,,,,,,6398,-5179,3199,0,
 1655061808406.14501953125,,,,,,6486,-7281,3243,0,
 1655061808417.00927734375,-0.05688476562,-0.09790039062,-1.04357910156,,,,,,,,
 1655061808447.13012695312,,,,,,6526,-8928,3263,0,
 1655061808488.75610351562,,,,,,6558,-9956,3279,0,
 1655061808497.33154296875,-0.04943847656,-0.08947753906,-1.02758789062,,,,,,,,
 1655061808529.619140625,,,,,,6574,-10263,3287,0,
 1655061808570.5126953125,,,,,,6574,-9832,3287,0,
 1655061808579.0576171875,-0.04382324218,-0.07727050781,-1.01904296875,,,,,,,,
 1655061808655.44311523437,,,,,,6622,-8688,3311,0,
 1655061808661.42456054687,-0.04125976562,-0.07153320312,-1.02136230468,,,,,,,,
 1655061808694.23095703125,,,,,,6622,-6971,3311,0,
 1655061808737.84057617187,,,,,,6622,-4866,3311,0,
 1655061808776.29272460937,,,,,,6622,-2628,3311,0,
 1655061808820.32958984375,,,,,,6606,-521,3303,0,
 1655061808861.34521484375,,,,,,,,,,64
 1655061808864.27490234375,,,,,,6590,1226,3295,0,
 1655061808903.12377929687,-0.04992675781,-0.07312011718,-1.02038574218,,,,,,,,
 1655061808907.548828125,,,,,,6574,2415,3287,0,
 1655061808941.27075195312,,,,,,6526,2904,3263,0,
 1655061808985.85693359375,-0.04931640625,-0.07275390625,-1.029296875,,,,,,,,
 1655061808990.25146484375,,,,,,6526,2657,3263,0,
 1655061808995.927734375,,,,64,100,,,,
 1655061809023.6376953125,,,,,,6518,1672,3259,0,
 1655061809089.83032226562,-0.04907226562,-0.06945800781,-1.02819824218,,,,,,,,
 1655061809188.03588867187,,,,,,6382,-13,3191,0,
 1655061809217.119140625,-0.04516601562,-0.07019042968,-1.0234375,,,,,,,,
 1655061809231.00463867187,,,,,,6334,-2143,3167,0,
 1655061809270.830078125,,,,,,6334,-4502,3167,0,
 1655061809296.953125,-0.03979492187,-0.06921386718,-1.0244140625,,,,,,,,
 1655061809311.99829101562,,,,,,6366,-6805,3183,0,
 1655061809352.89184570312,,,,,,6454,-8779,3227,0,
 1655061809376.84814453125,-0.03308105468,-0.07092285156,-1.02905273437,,,,,,,,
 1655061809393.96850585937,,,,,,6526,-10236,3263,0,
 1655061809435.04516601562,,,,,,6574,-11003,3287,0,
 1655061809457.20092773437,-0.02905273437,-0.07482910156,-1.03125,,,,,,,,
 1655061809476.30493164062,,,,,,6590,-10997,3295,0,
 1655061809517.32055664062,,,,,,6590,-10216,3295,0,
 1655061809536.88232421875,-0.04577636718,-0.1474609375,-1.05102539062,,,,,,,,
 1655061809558.85498046875,,,,,,6590,-8751,3295,0,
 1655061809599.74853515625,,,,,,6622,-6748,3311,0,
 1655061809617.1435546875,-0.10266113281,-0.248046875,-1.11450195312,,,,,,,,
 1655061809641.22192382812,,,,,,6622,-4438,3311,0,
 1655061809682.0849609375,,,,,,6638,-2067,3319,0,
 1655061809697.31323242187,-0.11352539062,-0.21997070312,-1.12426757812,,,,,,,,
 1655061809723.13110351562,,,,,,6638,119,3319,0,
 1655061809764.482421875,,,,,,6622,1858,3311,0,
 1655061809776.84204101562,-0.07275390625,-0.14013671875,-1.07458496093,,,,,,,,
 1655061809805.46752929687,,,,,,6622,3001,3311,0,
 1655061809864.06127929687,,,,,,,,,,64
 1655061809866.8994140625,-0.05676269531,-0.10815429687,-1.04724121093,,,,,,,,
 1655061809871.171875,,,,,,6590,3387,3295,0,
 1655061809888.75,,,,,,6574,3008,3287,0,
 1655061809894.7314453125,,,,64,100,,,,
 1655061809929.30786132812,,,,,,6550,1911,3275,0,
 1655061809937.88330078125,-0.05041503906,-0.08483886718,-1.03344726562,,,,,,,,
 1655061809970.10986328125,,,,,,6526,245,3263,0,
 1655061810011.61376953125,,,,,,6494,-1827,3247,0,
 1655061810021.07421875,-0.04956054687,-0.07189941406,-1.02917480468,,,,,,,,
 1655061810096.26953125,,,,,,6462,-4073,3231,0,
 1655061810111.00952148437,,,,,,6430,-6263,3215,0,
 1655061810136.03393554687,,,,,,6390,-8181,3195,0,
 1655061810178.88061523437,,,,,,6366,-9621,3183,0,
 1655061810217.27172851562,,,,,,6326,-10458,3163,0,
 1655061810261.46118164062,-0.03918457031,-0.08654785156,-1.02648925781,,,,,,,,
 1655061810265.88623046875,,,,,,6270,-10614,3135,0,
 1655061810300.06591796875,,,,,,6238,-10074,3119,0,
 1655061810343.79760742187,-0.0390625,-0.08630371093,-1.02685546875,,,,,,,,
 1655061810348.1005859375,,,,,,6254,-8890,3127,0,
 1655061810382.18872070312,,,,,,6302,-7172,3151,0,
 1655061810426.25610351562,-0.03698730468,-0.07568359375,-1.0302734375,,,,,,,,
 1655061810430.68115234375,,,,,,6382,-5071,3191,0,
 1655061810464.52514648437,,,,,,6398,-2807,3199,0,
 1655061810496.72119140625,-0.03491210937,-0.07592773437,-1.02978515625,,,,,,,,
 1655061810546.5869140625,,,,,,6430,-552,3215,0,
 1655061810576.64672851562,-0.0361328125,-0.0771484375,-1.02319335937,,,,,,,,
 1655061810590.80688476562,,,,,,6398,1466,3199,0,
 1655061810629.32006835937,,,,,,6398,3098,3199,0,
 1655061810656.87744140625,-0.04174804687,-0.07141113281,-1.0244140625,,,,,,,,
 1655061810670.94604492187,,,,,,6398,4201,3199,0,
 1655061810736.68090820312,-0.04443359375,-0.07092285156,-1.02490234375,,,,,,,,
 1655061810752.55004882812,,,,,,6398,4709,3199,0,
 1655061810794.51171875,,,,,,6398,4573,3199,0,
 1655061810800.46264648437,,,,64,100,,,,
 1655061810816.6064453125,-0.04675292968,-0.07580566406,-1.02404785156,,,,,,,,
 1655061810834.88647460937,,,,,,6382,3763,3191,0,
 1655061810855.546875,,,,,,,,,,64
 1655061810876.48193359375,,,,,,6366,2367,3183,0,
 1655061810897.11181640625,-0.04577636718,-0.07495117187,-1.02270507812,,,,,,,,
 1655061810917.65014648437,,,,,,6326,491,3163,0,
 1655061810958.9404296875,,,,,,6294,-1706,3147,0,
 1655061810976.640625,-0.01196289062,0.04736328125,-1.00219726562,,,,,,,,
 1655061810999.74243164062,,,,,,6262,-4066,3131,0,
 1655061811094.49951171875,0.037109375,0.16589355468,-0.93530273437,,,,,,,,
 1655061811098.86352539062,,,,,,6230,-6421,3115,0,
 1655061811125.01708984375,,,,,,6142,-10360,3071,0,
 1655061811137.01049804687,0.03405761718,0.1044921875,-0.92395019531,,,,,,,,
 1655061811164.29321289062,,,,,,6110,-11620,3055,0,
 1655061811205.82763671875,,,,,,6078,-12261,3039,0,
 1655061811216.60034179687,-0.00378417968,0.00708007812,-0.98425292968,,,,,,,,
 1655061811246.47705078125,,,,,,6046,-12198,3023,0,
 1655061811287.64526367187,,,,,,5982,-11410,2991,0,
 1655061811296.77001953125,-0.02258300781,-0.04150390625,-1.01245117187,,,,,,,,
 1655061811328.78295898437,,,,,,5982,-9936,2991,0,
 1655061811370.3173828125,,,,,,6014,-7884,3007,0,
 1655061811379.77783203125,-0.03662109375,-0.06213378906,-1.0224609375,,,,,,,,
 1655061811411.54663085937,,,,,,6062,-5412,3031,0,
 1655061811454.97314453125,,,,,,6078,-2741,3039,0,
 1655061811460.95458984375,-0.04309082031,-0.07067871093,-1.02404785156,,,,,,,,
 1655061811493.88305664062,,,,,,6078,-69,3039,0,
 1655061811537.3095703125,,,,,,6062,2350,3031,0,
 1655061811575.70068359375,,,,,,6014,4285,3007,0,
 1655061811619.79858398437,,,,,,6014,5584,3007,0,
 1655061811658.037109375,,,,,,6006,6087,3003,0,
 1655061811703.17260742187,-0.04174804687,-0.07409667968,-1.02880859375,,,,,,,,
 1655061811707.38403320312,,,,,,5998,5719,2999,0,
 1655061811713.51806640625,,,,65,100,,,,
 1655061811740.556640625,,,,,,5982,4474,2991,0,
 1655061811784.95971679687,-0.04125976562,-0.07006835937,-1.02380371093,,,,,,,,
 1655061811789.23217773437,,,,,,5974,2472,2987,0,
 1655061811822.86254882812,,,,,,5950,-125,2975,0,
 1655061811852.22045898437,,,,,,,,,,63
 1655061811859.3310546875,-0.04431152343,-0.07238769531,-1.02783203125,,,,,,,,
 1655061811905.01586914062,,,,,,5870,-3079,2935,0,
 1655061811941.57592773437,-0.04455566406,-0.07446289062,-1.03381347656,,,,,,,,
 1655061811950.6396484375,,,,,,5822,-6111,2911,0,
 1655061811987.84057617187,,,,,,5806,-8932,2903,0,
 1655061812016.6796875,-0.04052734375,-0.07019042968,-1.03442382812,,,,,,,,
 1655061812031.05346679687,,,,,,5758,-11287,2879,0,
 1655061812111.74194335937,,,,,,5694,-12951,2847,0,
 1655061812152.26928710937,,,,,,5630,-13741,2815,0,
 1655061812176.43920898437,-0.04187011718,-0.07653808593,-1.02575683593,,,,,,,,
 1655061812193.8037109375,,,,,,5598,-13571,2799,0,
 1655061812234.5751953125,,,,,,5598,-12442,2799,0,
 1655061812256.669921875,-0.04138183593,-0.07739257812,-1.02758789062,,,,,,,,
 1655061812276.26220703125,,,,,,5614,-10465,2807,0,
 1655061812316.91162109375,,,,,,5662,-7807,2831,0,
 1655061812336.71752929687,-0.04016113281,-0.07470703125,-1.02954101562,,,,,,,,
 1655061812358.44604492187,,,,,,5694,-4756,2847,0,
 1655061812399.21752929687,,,,,,5710,-1568,2855,0,
 1655061812416.39892578125,0.00842285156,-0.08178710937,-0.93762207031,,,,,,,,
 1655061812440.78247070312,,,,,,5694,1410,2847,0,
 1655061812481.55395507812,,,,,,5690,3940,2845,0,
 1655061812496.75170898437,0.03308105468,-0.11108398437,-0.84582519531,,,,,,,,
 1655061812522.99682617187,,,,,,5630,5728,2815,0,
 1655061812563.89038085937,,,,,,5630,6670,2815,0,
 1655061812576.82983398437,-0.00219726562,-0.11437988281,-0.89465332031,,,,,,,,
 1655061812606.5234375,,,,,,5630,6667,2815,0,
 1655061812612.19970703125,,,,65,100,,,,
 1655061812646.5625,,,,,,5630,5732,2815,0,
 1655061812656.35864257812,-0.02075195312,-0.09191894531,-0.96130371093,,,,,,,,
 1655061812687.66967773437,,,,,,5598,3980,2799,0,
 1655061812728.53271484375,,,,,,5582,1567,2791,0,
 1655061812738.20678710937,-0.02941894531,-0.08459472656,-0.99230957031,,,,,,,,
 1655061812770.28076171875,,,,,,5550,-1217,2775,0,
 1655061812811.14379882812,,,,,,5526,-4117,2763,0,
 1655061812819.68872070312,-0.03356933593,-0.08435058593,-1.01098632812,,,,,,,,
 1655061812861.37573242187,,,,,,,,,,63
 1655061812864.15283203125,,,,,,5486,-6863,2743,0,
 1655061812896.318359375,-0.03857421875,-0.08728027343,-1.02392578125,,,,,,,,
 1655061812934.49584960937,,,,,,5422,-9241,2711,0,
 1655061812978.41064453125,,,,,,5374,-11031,2687,0,
 1655061813016.71020507812,,,,,,5358,-12094,2679,0,
 1655061813098.92456054687,-0.03833007812,-0.07080078125,-1.03430175781,,,,,,,,
 1655061813103.13598632812,,,,,,5334,-12368,2667,0,
 1655061813143.90747070312,-0.03771972656,-0.0673828125,-1.03576660156,,,,,,,,
 1655061813148.21044921875,,,,,,5374,-10537,2687,0,
 1655061813181.56616210937,,,,,,5470,-8622,2735,0,
 1655061813225.5419921875,-0.04052734375,-0.07104492187,-1.02709960937,,,,,,,,
 1655061813229.75341796875,,,,,,5502,-6272,2751,0,
 1655061813263.90258789062,,,,,,5502,-3693,2751,0,
 1655061813297.41088867187,-0.04077148437,-0.06762695312,-1.02404785156,,,,,,,,
 1655061813346.08642578125,,,,,,5494,-1097,2747,0,
 1655061813376.23779296875,-0.03771972656,-0.06909179687,-1.02575683593,,,,,,,,
 1655061813390.39794921875,,,,,,5486,1315,2743,0,
 1655061813429.033203125,,,,,,5486,3364,2743,0,
 1655061813456.46850585937,-0.04052734375,-0.07397460937,-1.02868652343,,,,,,,,
 1655061813470.81176757812,,,,,,5502,4927,2751,0,
 1655061813510.88134765625,,,,,,5502,5895,2751,0,
 1655061813536.51611328125,-0.044921875,-0.07409667968,-1.03210449218,,,,,,,,
 1655061813552.53784179687,,,,,,5502,6231,2751,0,
 1655061813593.828125,,,,,,5486,5934,2743,0,
 1655061813599.59594726562,,,,65,100,,,,
 1655061813616.19750976562,-0.0458984375,-0.07312011718,-1.03369140625,,,,,,,,
 1655061813635.02685546875,,,,,,5470,5058,2735,0,
 1655061813675.37109375,,,,,,5438,3657,2719,0,
 1655061813696.58081054687,-0.04638671875,-0.07580566406,-1.03649902343,,,,,,,,
 1655061813717.119140625,,,,,,5422,1831,2711,0,
 1655061813757.73803710937,,,,,,5406,-283,2703,0,
 1655061813776.62841796875,-0.04772949218,-0.08129882812,-1.03784179687,,,,,,,,
 1655061813799.69970703125,,,,,,5374,-2603,2687,0,
 1655061813840.41015625,,,,,,5342,-4930,2671,0,
 1655061813863.84765625,,,,,,,,,,62
 1655061813866.8994140625,-0.04406738281,-0.07958984375,-1.02917480468,,,,,,,,
 1655061813881.669921875,,,,,,5310,-7157,2655,0,
 1655061813923.20434570312,,,,,,5342,-9093,2671,0,
 1655061813936.38793945312,-0.10083007812,-0.07153320312,-1.03234863281,,,,,,,,
 1655061813964.34204101562,,,,,,5422,-10617,2711,0,
 1655061814005.02197265625,,,,,,5486,-11629,2743,0,
 1655061814017.71728515625,-0.09497070312,0.0009765625,-0.89624023437,,,,,,,,
 1655061814096.42211914062,,,,,,5562,-12071,2781,0,
 1655061814111.2841796875,,,,,,5598,-11902,2799,0,
 1655061814128.95385742187,,,,,,5598,-11140,2799,0,
 1655061814169.69482421875,,,,,,5614,-9856,2807,0,
 1655061814178.30078125,-0.03564453125,-0.02380371093,-0.93530273437,,,,,,,,
 1655061814211.3818359375,,,,,,5614,-8129,2807,0,
 1655061814255.35766601562,,,,,,5630,-6102,2815,0,
 1655061814261.12548828125,-0.04052734375,-0.04650878906,-0.98962402343,,,,,,,,
 1655061814293.59619140625,,,,,,5630,-3908,2815,0,
 1655061814337.14477539062,,,,,,5678,-1700,2839,0,
 1655061814375.59692382812,,,,,,5678,337,2839,0,
 1655061814419.20654296875,,,,,,5678,2059,2839,0,
 1655061814457.93334960937,,,,,,5630,3298,2815,0,
 1655061814501.75659179687,-0.04406738281,-0.07360839843,-1.01928710937,,,,,,,,
 1655061814505.96801757812,,,,,,5630,3981,2815,0,
 1655061814540.45288085937,,,,,,5622,4047,2811,0,
 1655061814584.85595703125,-0.03723144531,-0.0771484375,-1.021484375,,,,,,,,
 1655061814588.97583007812,,,,,,5594,3486,2797,0,
 1655061814595.14038085937,,,,65,100,,,,
 1655061814622.72827148437,,,,,,5566,2343,2783,0,
 1655061814656.14501953125,-0.03405761718,-0.07348632812,-1.01525878906,,,,,,,,
 1655061814704.7900390625,,,,,,5534,721,2767,0,
 1655061814737.16918945312,-0.03564453125,-0.07495117187,-1.01647949218,,,,,,,,
 1655061814787.12646484375,,,,,,5526,-1241,2763,0,
 1655061814815.99609375,-0.03747558593,-0.07983398437,-1.01806640625,,,,,,,,
 1655061814830.43090820312,,,,,,5614,-3329,2807,0,
 1655061814851.94580078125,,,,,,,,,,62
 1655061814869.76806640625,,,,,,5694,-5379,2847,0,
 1655061814896.37939453125,-0.03625488281,-0.07275390625,-1.01574707031,,,,,,,,
 1655061814911.24145507812,,,,,,5790,-7186,2895,0,
 1655061814951.79931640625,,,,,,5822,-8611,2911,0,
 1655061814976.2744140625,-0.03454589843,-0.06311035156,-1.01672363281,,,,,,,,
 1655061814993.66943359375,,,,,,5854,-9536,2927,0,
 1655061815034.16625976562,,,,,,5870,-9877,2935,0,
 1655061815103.80737304687,-0.03698730468,-0.06066894531,-1.01708984375,,,,,,,,
 1655061815112.9931640625,,,,,,5878,-9605,2939,0,
 1655061815137.37670898437,-0.04113769531,-0.07006835937,-1.021484375,,,,,,,,
 1655061815158.6474609375,,,,,,5942,-7367,2971,0,
 1655061815199.32739257812,,,,,,5950,-5632,2975,0,
 1655061815216.17309570312,-0.04626464843,-0.07958984375,-1.02661132812,,,,,,,,
 1655061815240.52612304687,,,,,,5966,-3704,2983,0,
 1655061815281.14501953125,,,,,,5950,-1757,2975,0,
 1655061815295.91552734375,-0.04870605468,-0.08190917968,-1.02905273437,,,,,,,,
 1655061815322.86254882812,,,,,,5950,53,2975,0,
 1655061815363.4814453125,,,,,,5934,1562,2967,0,
 1655061815376.14624023437,-0.08203125,-0.09240722656,-1.0458984375,,,,,,,,
 1655061815405.32104492187,,,,,,5918,2626,2959,0,
 1655061815445.81787109375,,,,,,5886,3166,2943,0,
 1655061815456.19384765625,-0.17895507812,-0.17028808593,-1.12768554687,,,,,,,,
 1655061815488.32885742187,,,,,,5878,3117,2939,0,
 1655061815494.61547851562,,,,65,100,,,,
 1655061815528.30688476562,,,,,,5854,2476,2927,0,
 1655061815536.88232421875,-0.18664550781,-0.19201660156,-1.15124511718,,,,,,,,
 1655061815569.99389648437,,,,,,5822,1285,2911,0,
 1655061815610.4296875,,,,,,5806,-336,2903,0,
 1655061815619.98168945312,-0.10998535156,-0.12084960937,-1.09033203125,,,,,,,,
 1655061815652.23876953125,,,,,,5790,-2240,2895,0,
 1655061815695.84838867187,,,,,,5806,-4248,2903,0,
 1655061815734.3310546875,,,,,,5886,-6163,2943,0,
 1655061815778.21533203125,,,,,,5998,-7810,2999,0,
 1655061815816.51489257812,,,,,,6062,-9060,3031,0,
 1655061815864.3359375,,,,,,,,,,61
 1655061815867.08251953125,-0.04528808593,-0.07385253906,-1.02563476562,,,,,,,,
 1655061815871.38549804687,,,,,,6110,-9785,3055,0,
 1655061815899.91943359375,,,,,,6126,-9918,3063,0,
 1655061815942.88818359375,-0.04187011718,-0.06982421875,-1.01818847656,,,,,,,,
 1655061815946.91650390625,,,,,,6142,-9436,3071,0,
 1655061815981.37084960937,,,,,,6142,-8378,3071,0,
 1655061816025.13305664062,-0.04248046875,-0.07434082031,-1.01989746093,,,,,,,,
 1655061816029.2529296875,,,,,,6142,-6824,3071,0,
 1655061816096.97143554687,,,,,,6206,-4971,3103,0,
 1655061816146.07421875,,,,,,6238,-2966,3119,0,
 1655061816180.92529296875,-0.0380859375,-0.08081054687,-1.03186035156,,,,,,,,
 1655061816189.95849609375,,,,,,6230,-995,3115,0,
 1655061816228.62426757812,,,,,,6222,778,3111,0,
 1655061816255.693359375,-0.03552246093,-0.07006835937,-1.0283203125,,,,,,,,
 1655061816270.18920898437,,,,,,6206,2159,3103,0,
 1655061816310.65551757812,,,,,,6190,3022,3095,0,
 1655061816336.015625,-0.04260253906,-0.07116699218,-1.0205078125,,,,,,,,
 1655061816392.86987304687,,,,,,6142,3223,3071,0,
 1655061816417.03979492187,-0.04272460937,-0.07177734375,-1.01892089843,,,,,,,,
 1655061816475.93872070312,,,,,,6102,2751,3051,0,
 1655061816481.767578125,,,,65,100,,,,
 1655061816496.01928710937,-0.03771972656,-0.06372070312,-1.01916503906,,,,,,,,
 1655061816516.86279296875,,,,,,6078,1649,3039,0,
 1655061816557.54272460937,,,,,,6046,-1,3023,0,
 1655061816576.09741210937,-0.03625488281,-0.06201171875,-1.02563476562,,,,,,,,
 1655061816599.26025390625,,,,,,6078,-2026,3039,0,
 1655061816639.7265625,,,,,,6142,-4236,3071,0,
 1655061816655.90087890625,-0.03771972656,-0.06237792968,-1.03271484375,,,,,,,,
 1655061816681.44409179687,,,,,,6270,-6390,3135,0,
 1655061816722.55126953125,,,,,,6318,-8275,3159,0,
 1655061816735.61279296875,0.01989746093,-0.02807617187,-0.95581054687,,,,,,,,
 1655061816763.78051757812,,,,,,6366,-9714,3183,0,
 1655061816804.3994140625,,,,,,6382,-10586,3191,0,
 1655061816815.90454101562,0.12915039062,0.01391601562,-0.91271972656,,,,,,,,
 1655061816860.85693359375,,,,,,,,,,61
 1655061816863.69506835937,,,,,,6382,-10730,3191,0,
 1655061816886.9189453125,,,,,,6398,-10145,3199,0,
 1655061816896.22680664062,0.19580078125,0.09301757812,-0.84252929687,,,,,,,,
 1655061816928.45336914062,,,,,,6398,-8911,3199,0,
 1655061816969.072265625,,,,,,6430,-7127,3215,0,
 1655061816977.70874023437,0.14562988281,0.10485839843,-0.82019042968,,,,,,,,
 1655061817010.78979492187,,,,,,6430,-5007,3215,0,
 1655061817098.955078125,0.05029296875,0.01354980468,-0.92761230468,,,,,,,,
 1655061817102.92236328125,,,,,,6398,-2763,3199,0,
 1655061817137.10205078125,,,,,,6398,1238,3199,0,
 1655061817175.64575195312,,,,,,6382,2563,3191,0,
 1655061817219.072265625,,,,,,6334,3219,3167,0,
 1655061817258.134765625,,,,,,6334,3137,3167,0,
 1655061817264.39086914062,,,,65,100,,,,
 1655061817301.7138671875,-0.02661132812,-0.05529785156,-1.0185546875,,,,,,,,
 1655061817305.71166992187,,,,,,6302,2323,3151,0,
 1655061817340.37963867187,,,,,,6270,839,3135,0,
 1655061817384.75219726562,-0.0322265625,-0.06958007812,-1.01806640625,,,,,,,,
 1655061817388.81103515625,,,,,,6238,-1169,3119,0,
 1655061817455.5224609375,-0.0400390625,-0.07836914062,-1.02197265625,,,,,,,,
 1655061817504.44213867187,,,,,,6302,-3450,3151,0,
 1655061817540.81909179687,-0.04150390625,-0.076171875,-1.03112792968,,,,,,,,
 1655061817550.06591796875,,,,,,6382,-5780,3191,0,
 1655061817586.90063476562,,,,,,6430,-7914,3215,0,
 1655061817615.70922851562,-0.0380859375,-0.07104492187,-1.02807617187,,,,,,,,
 1655061817629.77783203125,,,,,,6462,-9643,3231,0,
 1655061817669.66430664062,,,,,,6462,-10795,3231,0,
 1655061817695.45166015625,-0.04064941406,-0.07067871093,-1.02563476562,,,,,,,,
 1655061817710.52734375,,,,,,6462,-11256,3231,0,
 1655061817751.87866210937,,,,,,6462,-10986,3231,0,
 1655061817775.77392578125,-0.04296875,-0.07568359375,-1.0244140625,,,,,,,,
 1655061817792.802734375,,,,,,6462,-10012,3231,0,
 1655061817833.57421875,,,,,,6462,-8440,3231,0,
 1655061817857.5,,,,,,,,,,62
 1655061817860.12451171875,-0.03979492187,-0.07495117187,-1.02600097656,,,,,,,,
 1655061817875.10864257812,,,,,,6486,-6414,3243,0,
 1655061817916.18530273437,,,,,,6462,-4168,3231,0,
 1655061817935.65551757812,-0.0341796875,-0.07458496093,-1.02563476562,,,,,,,,
 1655061817957.44506835937,,,,,,6446,-1916,3223,0,
 1655061817998.46069335937,,,,,,6430,125,3215,0,
 1655061818015.88623046875,-0.03149414062,-0.07861328125,-1.02136230468,,,,,,,,
 1655061818039.90356445312,,,,,,6398,1756,3199,0,
 1655061818107.28637695312,,,,,,6366,2823,3183,0,
 1655061818163.0419921875,,,,,,6302,3229,3151,0,
 1655061818176.40869140625,-0.03955078125,-0.07458496093,-1.0341796875,,,,,,,,
 1655061818205.30883789062,,,,,,6270,2927,3135,0,
 1655061818211.56494140625,,,,65,100,,,,
 1655061818245.59204101562,,,,,,6270,1990,3135,0,
 1655061818255.66284179687,0.03991699218,-0.10668945312,-0.96069335937,,,,,,,,
 1655061818286.943359375,,,,,,6334,522,3167,0,
 1655061818327.56225585937,,,,,,6398,-1296,3199,0,
 1655061818336.47338867187,0.12280273437,-0.06335449218,-0.88269042968,,,,,,,,
 1655061818369.85961914062,,,,,,6430,-3293,3215,0,
 1655061818409.89868164062,,,,,,6462,-5260,3231,0,
 1655061818418.80981445312,0.0771484375,-0.00769042968,-0.91711425781,,,,,,,,
 1655061818451.82983398437,,,,,,6462,-7022,3231,0,
 1655061818495.01220703125,,,,,,6446,-8421,3223,0,
 1655061818533.61694335937,,,,,,6430,-9311,3215,0,
 1655061818578.23364257812,,,,,,6430,-9604,3215,0,
 1655061818615.83129882812,,,,,,6430,-9259,3215,0,
 1655061818659.92919921875,-0.0224609375,-0.06359863281,-1.02868652343,,,,,,,,
 1655061818663.98803710937,,,,,,6430,-8310,3215,0,
 1655061818698.74755859375,,,,,,6398,-6852,3199,0,
 1655061818742.41821289062,-0.03234863281,-0.06726074218,-1.0341796875,,,,,,,,
 1655061818746.47705078125,,,,,,6398,-4993,3199,0,
 1655061818781.05346679687,,,,,,6366,-2881,3183,0,
 1655061818824.60205078125,-0.03698730468,-0.06787109375,-1.03466796875,,,,,,,,
 1655061818828.69140625,,,,,,6334,-742,3167,0,
 1655061818863.20678710937,,,,,,,,,,65
 1655061818866.01440429687,,,,,,6270,1244,3135,0,
 1655061818895.25024414062,-0.0380859375,-0.06921386718,-1.03076171875,,,,,,,,
 1655061818945.2685546875,,,,,,6222,2911,3111,0,
 1655061818980.57739257812,-0.04064941406,-0.06774902343,-1.02368164062,,,,,,,,
 1655061818990.068359375,,,,,,6142,4086,3071,0,
 1655061819028.09326171875,,,,,,6142,4694,3071,0,
 1655061819104.75341796875,-0.04077148437,-0.06286621093,-1.01733398437,,,,,,,,
 1655061819109.17846679687,,,,,,6238,4684,3119,0,
 1655061819115.068359375,,,,65,100,,,,
 1655061819135.2099609375,-0.04296875,-0.06579589843,-1.01953125,,,,,,,,
 1655061819151.26220703125,,,,,,6318,2708,3159,0,
 1655061819193.0712890625,,,,,,6318,874,3159,0,
 1655061819216.53930664062,-0.04296875,-0.06823730468,-1.02258300781,,,,,,,,
 1655061819233.41552734375,,,,,,6302,-1339,3151,0,
 1655061819274.79736328125,,,,,,6270,-3777,3135,0,
 1655061819295.45776367187,-0.03771972656,-0.06518554687,-1.02307128906,,,,,,,,
 1655061819316.1181640625,,,,,,6270,-6203,3135,0,
 1655061819356.98120117187,,,,,,6254,-8466,3127,0,
 1655061819375.41381835937,-0.03942871093,-0.06372070312,-1.02941894531,,,,,,,,
 1655061819398.3935546875,,,,,,6238,-10346,3119,0,
 1655061819439.47021484375,,,,,,6238,-11702,3119,0,
 1655061819455.64453125,-0.04028320312,-0.06616210937,-1.03039550781,,,,,,,,
 1655061819521.65405273437,,,,,,6198,-12416,3099,0,
 1655061819535.234375,-0.03967285156,-0.06945800781,-1.01940917968,,,,,,,,
 1655061819563.06640625,,,,,,6142,-12434,3071,0,
 1655061819603.99047851562,,,,,,6110,-11733,3055,0,
 1655061819615.12939453125,-0.03930664062,-0.07312011718,-1.01635742187,,,,,,,,
 1655061819645.43334960937,,,,,,6078,-10377,3039,0,
 1655061819686.32690429687,,,,,,6038,-8488,3019,0,
 1655061819695.5126953125,-0.03601074218,-0.07580566406,-1.01794433593,,,,,,,,
 1655061819727.76977539062,,,,,,5998,-6254,2999,0,
 1655061819768.66333007812,,,,,,5966,-3858,2983,0,
 1655061819777.421875,-0.06164550781,-0.08227539062,-1.09692382812,,,,,,,,
 1655061819864.2138671875,,,,,,,,,,67
 1655061819867.1435546875,0.05151367187,-0.03015136718,-1.1025390625,,,,,,,,
 1655061819871.171875,,,,,,6038,-1501,3019,0,
 1655061819892.99194335937,,,,,,6094,581,3047,0,
 1655061819936.44897460937,,,,,,6126,2201,3063,0,
 1655061819974.47387695312,,,,,,6142,3216,3071,0,
 1655061820019.79248046875,,,,,,6110,3512,3055,0,
 1655061820097.33764648437,,,,,,6102,3075,3051,0,
 1655061820103.31909179687,,,,65,100,,,,
 1655061820116.68579101562,,,,,,6102,1955,3051,0,
 1655061820183.3056640625,-0.02734375,-0.07092285156,-1.02209472656,,,,,,,,
 1655061820187.333984375,,,,,,6110,298,3055,0,
 1655061820222.06298828125,,,,,,6110,-1731,3055,0,
 1655061820255.11352539062,-0.03466796875,-0.06958007812,-1.02380371093,,,,,,,,
 1655061820304.09423828125,,,,,,6078,-3900,3039,0,
 1655061820344.89624023437,-0.0390625,-0.07312011718,-1.02563476562,,,,,,,,
 1655061820349.01611328125,,,,,,6038,-5970,3019,0,
 1655061820386.30859375,,,,,,6014,-7716,3007,0,
 1655061820415.2392578125,-0.04113769531,-0.07275390625,-1.02661132812,,,,,,,,
 1655061820429.765625,,,,,,5982,-8965,2991,0,
 1655061820468.98071289062,,,,,,5934,-9571,2967,0,
 1655061820495.04272460937,-0.03588867187,-0.07043457031,-1.02587890625,,,,,,,,
 1655061820509.599609375,,,,,,5886,-9446,2943,0,
 1655061820551.01196289062,,,,,,5870,-8594,2935,0,
 1655061820574.96826171875,-0.03649902343,-0.07250976562,-1.02563476562,,,,,,,,
 1655061820592.36328125,,,,,,5886,-7069,2943,0,
 1655061820633.134765625,,,,,,5982,-5001,2991,0,
 1655061820655.32104492187,-0.04516601562,-0.07446289062,-1.02648925781,,,,,,,,
 1655061820674.66918945312,,,,,,6062,-2632,3031,0,
 1655061820715.50170898437,,,,,,6110,-218,3055,0,
 1655061820735.00244140625,-0.04821777343,-0.0712890625,-1.03002929687,,,,,,,,
 1655061820757.00561523437,,,,,,6134,2012,3067,0,
 1655061820797.99072265625,,,,,,6134,3808,3067,0,
 1655061820815.32470703125,-0.05065917968,-0.06970214843,-1.03381347656,,,,,,,,
 1655061820839.61669921875,,,,,,6142,4985,3071,0,
 1655061820860.61279296875,,,,,,,,,,67
 1655061820880.66284179687,,,,,,6142,5390,3071,0,
 1655061820895.43334960937,-0.05590820312,-0.07531738281,-1.03137207031,,,,,,,,
 1655061820922.34985351562,,,,,,6142,4990,3071,0,
 1655061820928.51440429687,,,,65,100,,,,
 1655061820962.8466796875,,,,,,6142,3796,3071,0,
 1655061820974.96215820312,-0.05419921875,-0.0810546875,-1.02294921875,,,,,,,,
 1655061821003.77075195312,,,,,,6142,1959,3071,0,
 1655061821104.78393554687,-0.05236816406,-0.07629394531,-1.02001953125,,,,,,,,
 1655061821108.87329101562,,,,,,6142,-2772,3071,0,
 1655061821136.85791015625,-0.10778808593,-0.11486816406,-1.01452636718,,,,,,,,
 1655061821168.68774414062,,,,,,6110,-7271,3055,0,
 1655061821209.88647460937,,,,,,6078,-8863,3039,0,
 1655061821218.67553710937,-0.13879394531,-0.13696289062,-1.06616210937,,,,,,,,
 1655061821294.48120117187,,,,,,6014,-9804,3007,0,
 1655061821333.02490234375,,,,,,5998,-9998,2999,0,
 1655061821377.12280273437,,,,,,5974,-9456,2987,0,
 1655061821415.33081054687,,,,,,5982,-8260,2991,0,
 1655061821459.15405273437,,,,,,6062,-6549,3031,0,
 1655061821497.72827148437,,,,,,6142,-4580,3071,0,
 1655061821542.0703125,-0.04150390625,-0.0654296875,-1.01208496093,,,,,,,,
 1655061821546.37329101562,,,,,,6230,-2576,3115,0,
 1655061821579.912109375,,,,,,6262,-794,3131,0,
 1655061821624.19311523437,-0.03918457031,-0.06591796875,-1.01708984375,,,,,,,,
 1655061821628.6181640625,,,,,,6270,554,3135,0,
 1655061821663.2861328125,,,,,,6270,1296,3135,0,
 1655061821694.84130859375,-0.0380859375,-0.06726074218,-1.02258300781,,,,,,,,
 1655061821744.64599609375,,,,,,6302,1360,3151,0,
 1655061821780.07690429687,-0.04064941406,-0.06787109375,-1.02612304687,,,,,,,,
 1655061821790.33081054687,,,,,,6318,712,3159,0,
 1655061821796.89208984375,,,,65,100,,,,
 1655061821854.87548828125,,,,,,,,,,68
 1655061821868.54736328125,-0.04089355468,-0.06811523437,-1.02673339843,,,,,,,,
 1655061821872.78930664062,,,,,,6334,-523,3167,0,
 1655061821934.80102539062,-0.03784179687,-0.068359375,-1.0322265625,,,,,,,,
 1655061821950.57861328125,,,,,,6302,-2224,3151,0,
 1655061821991.8994140625,,,,,,6270,-4134,3135,0,
 1655061822014.90966796875,-0.03540039062,-0.07153320312,-1.03271484375,,,,,,,,
 1655061822033.12866210937,,,,,,6270,-6007,3135,0,
 1655061822100.23681640625,,,,,,6238,-7634,3119,0,
 1655061822156.572265625,,,,,,6142,-8842,3071,0,
 1655061822174.7607421875,-0.03723144531,-0.07006835937,-1.03173828125,,,,,,,,
 1655061822197.89306640625,,,,,,6142,-9440,3071,0,
 1655061822238.87817382812,,,,,,6126,-9367,3063,0,
 1655061822255.0830078125,-0.03918457031,-0.07653808593,-1.04077148437,,,,,,,,
 1655061822279.7412109375,,,,,,6078,-8681,3039,0,
 1655061822321.06201171875,,,,,,6046,-7435,3023,0,
 1655061822335.19165039062,-0.04113769531,-0.07629394531,-1.03564453125,,,,,,,,
 1655061822362.07763671875,,,,,,6078,-5794,3039,0,
 1655061822403.3984375,,,,,,6142,-3915,3071,0,
 1655061822415.78857421875,-0.04211425781,-0.07312011718,-1.0322265625,,,,,,,,
 1655061822444.38354492187,,,,,,6270,-2018,3135,0,
 1655061822486.31469726562,,,,,,6334,-342,3167,0,
 1655061822495.13427734375,-0.03845214843,-0.07788085937,-1.03686523437,,,,,,,,
 1655061822526.71997070312,,,,,,6350,924,3175,0,
 1655061822568.10180664062,,,,,,6366,1649,3183,0,
 1655061822576.89086914062,-0.03356933593,-0.07702636718,-1.02868652343,,,,,,,,
 1655061822609.42260742187,,,,,,6366,1771,3183,0,
 1655061822653.67309570312,,,,,,6382,1323,3191,0,
 1655061822659.77661132812,,,,66,100,,,,
 1655061822663.896484375,-0.046875,-0.1474609375,-1.05187988281,,,,,,,,
 1655061822691.51489257812,,,,,,6398,393,3199,0,
 1655061822735.49072265625,,,,,,6398,-872,3199,0,
 1655061822773.8818359375,,,,,,6430,-2263,3215,0,
 1655061822817.76611328125,,,,,,6398,-3600,3199,0,
 1655061822863.05419921875,,,,,,,,,,68
 1655061822866.1669921875,,,,,,6398,-4679,3199,0,
 1655061822900.77392578125,-0.04370117187,-0.11083984375,-1.052734375,,,,,,,,
 1655061822904.9853515625,,,,,,6398,-5355,3199,0,
 1655061822938.64624023437,,,,,,6366,-5550,3183,0,
 1655061822982.6220703125,-0.03503417968,-0.09448242187,-1.04028320312,,,,,,,,
 1655061822987.0166015625,,,,,,6334,-5231,3167,0,
 1655061823021.13525390625,,,,,,6302,-4491,3151,0,
 1655061823089.58618164062,-0.03820800781,-0.08166503906,-1.03759765625,,,,,,,,
 1655061823135.91186523437,-0.03967285156,-0.07666015625,-1.03308105468,,,,,,,,
 1655061823185.380859375,,,,,,6142,-2313,3071,0,
 1655061823214.677734375,-0.03930664062,-0.07434082031,-1.03210449218,,,,,,,,
 1655061823229.60083007812,,,,,,6142,-1202,3071,0,
 1655061823294.755859375,-0.04016113281,-0.07116699218,-1.03271484375,,,,,,,,
 1655061823309.67895507812,,,,,,6078,-356,3039,0,
 1655061823349.99267578125,,,,,,6110,137,3055,0,
 1655061823374.55932617187,-0.04162597656,-0.06872558593,-1.03088378906,,,,,,,,
 1655061823391.40502929687,,,,,,6206,175,3103,0,
 1655061823433.0615234375,,,,,,6294,-277,3147,0,
 1655061823439.25659179687,,,,67,100,,,,
 1655061823454.82055664062,-0.04235839843,-0.06750488281,-1.02795410156,,,,,,,,
 1655061823473.64990234375,,,,,,6334,-1208,3167,0,
 1655061823534.71557617187,-0.03955078125,-0.06591796875,-1.02551269531,,,,,,,,
 1655061823556.23046875,,,,,,6358,-2480,3179,0,
 1655061823597.09350585937,,,,,,6358,-3922,3179,0,
 1655061823614.51904296875,-0.03930664062,-0.06518554687,-1.0244140625,,,,,,,,
 1655061823638.53637695312,,,,,,6366,-5336,3183,0,
 1655061823679.3994140625,,,,,,6382,-6516,3191,0,
 1655061823695.0244140625,-0.04333496093,-0.06372070312,-1.02185058593,,,,,,,,
 1655061823720.44555664062,,,,,,6382,-7313,3191,0,
 1655061823761.61376953125,,,,,,6398,-7605,3199,0,
 1655061823774.94995117187,-0.04211425781,-0.06408691406,-1.02478027343,,,,,,,,
 1655061823802.72094726562,,,,,,6382,-7380,3191,0,
 1655061823862.5048828125,,,,,,,,,,68
 1655061823865.4345703125,-0.03833007812,-0.06640625,-1.02819824218,,,,,,,,
 1655061823869.43237304687,,,,,,6366,-6618,3183,0,
 1655061823926.37817382812,,,,,,6318,-5443,3159,0,
 1655061823935.22827148437,-0.03979492187,-0.07055664062,-1.02465820312,,,,,,,,
 1655061823967.39379882812,,,,,,6286,-3985,3143,0,
 1655061824008.71459960937,,,,,,6254,-2481,3127,0,
 1655061824017.44262695312,-0.04040527343,-0.07263183593,-1.01770019531,,,,,,,,
 1655061824096.97143554687,,,,,,6230,-1134,3115,0,
 1655061824112.96264648437,,,,,,6190,-167,3095,0,
 1655061824132.49389648437,,,,,,6142,229,3071,0,
 1655061824177.41577148437,,,,,,6134,-11,3067,0,
 1655061824183.61083984375,,,,67,100,,,,
 1655061824214.49462890625,,,,,,6102,-900,3051,0,
 1655061824259.29443359375,,,,,,6046,-2371,3023,0,
 1655061824296.64794921875,,,,,,6046,-4258,3023,0,
 1655061824341.0205078125,0.03210449218,-0.05090332031,-0.99255371093,,,,,,,,
 1655061824345.23193359375,,,,,,6078,-6326,3039,0,
 1655061824379.16748046875,,,,,,6142,-8292,3071,0,
 1655061824423.38745117187,-0.00158691406,-0.064453125,-1.00903320312,,,,,,,,
 1655061824427.59887695312,,,,,,6222,-9889,3111,0,
 1655061824461.50390625,,,,,,6238,-10926,3119,0,
 1655061824494.55444335937,-0.01940917968,-0.06970214843,-1.02087402343,,,,,,,,
 1655061824543.9013671875,,,,,,6238,-11223,3119,0,
 1655061824579.45434570312,-0.03088378906,-0.07421875,-1.03051757812,,,,,,,,
 1655061824589.25048828125,,,,,,6222,-10718,3111,0,
 1655061824626.63452148437,,,,,,6230,-9411,3115,0,
 1655061824654.619140625,-0.03527832031,-0.07739257812,-1.03503417968,,,,,,,,
 1655061824669.29809570312,,,,,,6238,-7429,3119,0,
 1655061824708.818359375,,,,,,6238,-4956,3119,0,
 1655061824734.66674804687,-0.03833007812,-0.07568359375,-1.02783203125,,,,,,,,
 1655061824750.29174804687,,,,,,6238,-2236,3119,0,
 1655061824790.78857421875,,,,,,6206,415,3103,0,
 1655061824814.31762695312,-0.03967285156,-0.07495117187,-1.02026367187,,,,,,,,
 1655061824832.29248046875,,,,,,6142,2714,3071,0,
 1655061824852.95288085937,,,,,,,,,,68
 1655061824873.61328125,,,,,,6142,4408,3071,0,
 1655061824894.70092773437,-0.04040527343,-0.07360839843,-1.02087402343,,,,,,,,
 1655061824914.59838867187,,,,,,6110,5304,3055,0,
 1655061824956.68212890625,,,,,,6078,5270,3039,0,
 1655061824962.75512695312,,,,67,100,,,,
 1655061824974.65698242187,-0.04174804687,-0.07397460937,-1.02331542968,,,,,,,,
 1655061824996.7822265625,,,,,,6046,4323,3023,0,
 1655061825038.19458007812,,,,,,6014,2577,3007,0,
 1655061825113.84765625,-0.03930664062,-0.07934570312,-1.0244140625,,,,,,,,
 1655061825118.02856445312,,,,,,5998,221,2999,0,
 1655061825138.59741210937,-0.037109375,-0.08288574218,-1.02380371093,,,,,,,,
 1655061825162.09594726562,,,,,,5886,-5279,2943,0,
 1655061825214.43359375,-0.037109375,-0.07934570312,-1.021484375,,,,,,,,
 1655061825243.76098632812,,,,,,5886,-7741,2943,0,
